instructions_loop.thisRepN,instructions_loop.thisTrialN,instructions_loop.thisN,instructions_loop.thisIndex,instructions_loop.ran,text1,text2,text3,participant,date,expName,psychopyVersion,OS,frameRate,recog_resp.keys,recog_resp.rt,conf_resp.keys,conf_resp.rt,recog_loop.thisRepN,recog_loop.thisTrialN,recog_loop.thisN,recog_loop.thisIndex,recog_loop.ran,images,corr_ans,type,order,key_resp_break.keys,key_resp_break.rt,list_loop.thisRepN,list_loop.thisTrialN,list_loop.thisN,list_loop.thisIndex,list_loop.ran,recog_list
0,0,0,0,1,Willkommen zum letzten Teil des Experiments!,,Mit der LEERTASTE kannst du mit der Aufgabe fortfahren.,1,2020-12-15_14h09.35.967,premce3DEU_ses-02_part-02_label-phase2,2020.1.2,Win32,60,,,,,,,,,,,,,,,,,,,,,
0,1,1,1,1,,"Jetzt werden wir dir einige Bilder zeigen.

Bitte gib zu jedem Bild an, ob du du es im Verlauf des Experiments gesehen hast.

Drücke die LINKE PFEILTASTE für JA
Drücke die RECHTE PFEILTASTE für NEIN

",Mit der LEERTASTE kannst du mit der Aufgabe fortfahren.,1,2020-12-15_14h09.35.967,premce3DEU_ses-02_part-02_label-phase2,2020.1.2,Win32,60,,,,,,,,,,,,,,,,,,,,,
0,2,2,2,1,,"Anschließend bitten wir dich anzugeben wie sicher du dir bei deiner Wahl bist.

Bitte nutze die Zifferntasten von 1 bis 4 am oberen Ende deiner Tastatur um anzugeben, wie sicher du dir bei deiner Antwort bist.

Die Zahlen stehen für

1 = Sehr unsicher
2 = Unsicher
3 = Sicher
4 = Sehr sicher",Mit der LEERTASTE kannst du mit der Aufgabe fortfahren.,1,2020-12-15_14h09.35.967,premce3DEU_ses-02_part-02_label-phase2,2020.1.2,Win32,60,,,,,,,,,,,,,,,,,,,,,
,,,,,,,,1,2020-12-15_14h09.35.967,premce3DEU_ses-02_part-02_label-phase2,2020.1.2,Win32,60,right,1.057905,4,6.05519,0,0,0,72,1,stimuli/objects/doghouse.jpg,left,old,233,,,,,,,,
,,,,,,,,1,2020-12-15_14h09.35.967,premce3DEU_ses-02_part-02_label-phase2,2020.1.2,Win32,60,right,1.33155,3,3.284135,0,1,1,86,1,stimuli/objects/trafficlight.jpg,left,old,247,,,,,,,,
,,,,,,,,1,2020-12-15_14h09.35.967,premce3DEU_ses-02_part-02_label-phase2,2020.1.2,Win32,60,right,1.22133,1,0.99677,0,2,2,81,1,stimuli/objects/raccoon.jpg,right,new,242,,,,,,,,
,,,,,,,,1,2020-12-15_14h09.35.967,premce3DEU_ses-02_part-02_label-phase2,2020.1.2,Win32,60,right,2.35966,4,1.55662,0,3,3,95,1,stimuli/objects/sealion.jpg,right,new,256,,,,,,,,
,,,,,,,,1,2020-12-15_14h09.35.967,premce3DEU_ses-02_part-02_label-phase2,2020.1.2,Win32,60,right,2.94898,3,1.05759,0,4,4,10,1,stimuli/objects/spicerack.jpg,left,old,171,,,,,,,,
,,,,,,,,1,2020-12-15_14h09.35.967,premce3DEU_ses-02_part-02_label-phase2,2020.1.2,Win32,60,left,2.99277,4,0.944245,0,5,5,42,1,stimuli/objects/asianelephant.jpg,left,old,203,,,,,,,,
,,,,,,,,1,2020-12-15_14h09.35.967,premce3DEU_ses-02_part-02_label-phase2,2020.1.2,Win32,60,right,2.72946,2,1.69959,0,6,6,94,1,stimuli/objects/scorpion.jpg,right,new,255,,,,,,,,
,,,,,,,,1,2020-12-15_14h09.35.967,premce3DEU_ses-02_part-02_label-phase2,2020.1.2,Win32,60,right,1.99784,4,1.0163,0,7,7,110,1,stimuli/objects/funnel.jpg,right,new,271,,,,,,,,
,,,,,,,,1,2020-12-15_14h09.35.967,premce3DEU_ses-02_part-02_label-phase2,2020.1.2,Win32,60,right,1.624985,3,0.51231,0,8,8,140,1,stimuli/objects/treadmill.jpg,left,old,301,,,,,,,,
,,,,,,,,1,2020-12-15_14h09.35.967,premce3DEU_ses-02_part-02_label-phase2,2020.1.2,Win32,60,left,1.866035,1,0.305325,0,9,9,158,1,stimuli/objects/bowrake.jpg,right,new,319,,,,,,,,
,,,,,,,,1,2020-12-15_14h09.35.967,premce3DEU_ses-02_part-02_label-phase2,2020.1.2,Win32,60,right,2.29063,2,0.999685,0,10,10,32,1,stimuli/objects/cross01.jpg,right,new,193,,,,,,,,
,,,,,,,,1,2020-12-15_14h09.35.967,premce3DEU_ses-02_part-02_label-phase2,2020.1.2,Win32,60,right,1.21192,3,0.689295,0,11,11,66,1,stimuli/objects/tricornhat.jpg,right,new,227,,,,,,,,
,,,,,,,,1,2020-12-15_14h09.35.967,premce3DEU_ses-02_part-02_label-phase2,2020.1.2,Win32,60,right,2.55006,2,0.76239,0,12,12,44,1,stimuli/objects/donut.jpg,left,old,205,,,,,,,,
,,,,,,,,1,2020-12-15_14h09.35.967,premce3DEU_ses-02_part-02_label-phase2,2020.1.2,Win32,60,left,1.703935,1,0.886715,0,13,13,88,1,stimuli/objects/toilet.jpg,right,new,249,,,,,,,,
,,,,,,,,1,2020-12-15_14h09.35.967,premce3DEU_ses-02_part-02_label-phase2,2020.1.2,Win32,60,left,2.00319,1,0.260245,0,14,14,63,1,stimuli/objects/pin.jpg,right,new,224,,,,,,,,
,,,,,,,,1,2020-12-15_14h09.35.967,premce3DEU_ses-02_part-02_label-phase2,2020.1.2,Win32,60,right,1.648575,4,0.329055,0,15,15,112,1,stimuli/objects/hotdog.jpg,left,old,273,,,,,,,,
,,,,,,,,1,2020-12-15_14h09.35.967,premce3DEU_ses-02_part-02_label-phase2,2020.1.2,Win32,60,left,2.166855,3,0.84506,0,16,16,119,1,stimuli/objects/sandbarshark.jpg,right,new,280,,,,,,,,
,,,,,,,,1,2020-12-15_14h09.35.967,premce3DEU_ses-02_part-02_label-phase2,2020.1.2,Win32,60,right,1.433145,1,0.693155,0,17,17,25,1,stimuli/objects/scooter.jpg,right,new,186,,,,,,,,
,,,,,,,,1,2020-12-15_14h09.35.967,premce3DEU_ses-02_part-02_label-phase2,2020.1.2,Win32,60,left,1.870065,3,0.610465,0,18,18,47,1,stimuli/objects/candycane01a.jpg,left,old,208,,,,,,,,
,,,,,,,,1,2020-12-15_14h09.35.967,premce3DEU_ses-02_part-02_label-phase2,2020.1.2,Win32,60,right,1.351285,2,0.691125,0,19,19,33,1,stimuli/objects/noparkingsign.jpg,right,new,194,,,,,,,,
,,,,,,,,1,2020-12-15_14h09.35.967,premce3DEU_ses-02_part-02_label-phase2,2020.1.2,Win32,60,right,2.418935,4,0.326605,0,20,20,12,1,stimuli/objects/musicsheet.jpg,right,new,173,,,,,,,,
,,,,,,,,1,2020-12-15_14h09.35.967,premce3DEU_ses-02_part-02_label-phase2,2020.1.2,Win32,60,right,1.55672,2,0.29249,0,21,21,111,1,stimuli/objects/jellybean.jpg,left,old,272,,,,,,,,
,,,,,,,,1,2020-12-15_14h09.35.967,premce3DEU_ses-02_part-02_label-phase2,2020.1.2,Win32,60,left,3.25591,3,0.672465,0,22,22,123,1,stimuli/objects/ironingboard01.jpg,left,old,284,,,,,,,,
,,,,,,,,1,2020-12-15_14h09.35.967,premce3DEU_ses-02_part-02_label-phase2,2020.1.2,Win32,60,right,1.110635,1,0.340865,0,23,23,104,1,stimuli/objects/rockingchair.jpg,left,old,265,,,,,,,,
,,,,,,,,1,2020-12-15_14h09.35.967,premce3DEU_ses-02_part-02_label-phase2,2020.1.2,Win32,60,right,1.264135,4,0.225305,0,24,24,117,1,stimuli/objects/fingerprint.jpg,left,old,278,,,,,,,,
,,,,,,,,1,2020-12-15_14h09.35.967,premce3DEU_ses-02_part-02_label-phase2,2020.1.2,Win32,60,right,0.956855,2,0.27954,0,25,25,8,1,stimuli/objects/cloud.jpg,left,old,169,,,,,,,,
,,,,,,,,1,2020-12-15_14h09.35.967,premce3DEU_ses-02_part-02_label-phase2,2020.1.2,Win32,60,right,0.79517,3,0.261795,0,26,26,103,1,stimuli/objects/seagull.jpg,left,old,264,,,,,,,,
,,,,,,,,1,2020-12-15_14h09.35.967,premce3DEU_ses-02_part-02_label-phase2,2020.1.2,Win32,60,right,0.942445,2,0.10981,0,27,27,159,1,stimuli/objects/footballhelmet.jpg,left,old,320,,,,,,,,
,,,,,,,,1,2020-12-15_14h09.35.967,premce3DEU_ses-02_part-02_label-phase2,2020.1.2,Win32,60,left,2.03501,3,0.245865,0,28,28,29,1,stimuli/objects/steeringwheel.jpg,right,new,190,,,,,,,,
,,,,,,,,1,2020-12-15_14h09.35.967,premce3DEU_ses-02_part-02_label-phase2,2020.1.2,Win32,60,right,0.96861,1,0.284205,0,29,29,115,1,stimuli/objects/witchhat.jpg,left,old,276,,,,,,,,
,,,,,,,,1,2020-12-15_14h09.35.967,premce3DEU_ses-02_part-02_label-phase2,2020.1.2,Win32,60,right,1.04915,3,0.412045,0,30,30,133,1,stimuli/objects/kiwi03.jpg,right,new,294,,,,,,,,
,,,,,,,,1,2020-12-15_14h09.35.967,premce3DEU_ses-02_part-02_label-phase2,2020.1.2,Win32,60,right,0.67336,1,0.002735,0,31,31,139,1,stimuli/objects/locomotive.jpg,left,old,300,,,,,,,,
,,,,,,,,1,2020-12-15_14h09.35.967,premce3DEU_ses-02_part-02_label-phase2,2020.1.2,Win32,60,right,2.149055,3,0.34673,0,32,32,48,1,stimuli/objects/rubikcube.jpg,right,new,209,,,,,,,,
,,,,,,,,1,2020-12-15_14h09.35.967,premce3DEU_ses-02_part-02_label-phase2,2020.1.2,Win32,60,right,1.70707,1,0.918685,0,33,33,38,1,stimuli/objects/bread.jpg,right,new,199,,,,,,,,
,,,,,,,,1,2020-12-15_14h09.35.967,premce3DEU_ses-02_part-02_label-phase2,2020.1.2,Win32,60,left,1.119145,4,0.445635,0,34,34,85,1,stimuli/objects/skiboot01a.jpg,left,old,246,,,,,,,,
,,,,,,,,1,2020-12-15_14h09.35.967,premce3DEU_ses-02_part-02_label-phase2,2020.1.2,Win32,60,right,1.00293,2,0.30258,0,35,35,89,1,stimuli/objects/cruiseship.jpg,left,old,250,,,,,,,,
,,,,,,,,1,2020-12-15_14h09.35.967,premce3DEU_ses-02_part-02_label-phase2,2020.1.2,Win32,60,left,1.275475,1,0.32769,0,36,36,136,1,stimuli/objects/mouse.jpg,right,new,297,,,,,,,,
,,,,,,,,1,2020-12-15_14h09.35.967,premce3DEU_ses-02_part-02_label-phase2,2020.1.2,Win32,60,right,1.065655,1,0.56671,0,37,37,64,1,stimuli/objects/trojanhorse.jpg,right,new,225,,,,,,,,
,,,,,,,,1,2020-12-15_14h09.35.967,premce3DEU_ses-02_part-02_label-phase2,2020.1.2,Win32,60,right,1.005505,3,0.32059,0,38,38,90,1,stimuli/objects/battleaxe.jpg,left,old,251,,,,,,,,
,,,,,,,,1,2020-12-15_14h09.35.967,premce3DEU_ses-02_part-02_label-phase2,2020.1.2,Win32,60,right,2.69526,1,0.110535,0,39,39,109,1,stimuli/objects/spiderweb.jpg,right,new,270,,,,,,,,
,,,,,,,,1,2020-12-15_14h09.35.967,premce3DEU_ses-02_part-02_label-phase2,2020.1.2,Win32,60,left,1.43869,3,0.479625,0,40,40,69,1,stimuli/objects/bumpercar.jpg,right,new,230,,,,,,,,
,,,,,,,,1,2020-12-15_14h09.35.967,premce3DEU_ses-02_part-02_label-phase2,2020.1.2,Win32,60,right,1.636215,1,0.61665,0,41,41,131,1,stimuli/objects/boxingglove01.jpg,right,new,292,,,,,,,,
,,,,,,,,1,2020-12-15_14h09.35.967,premce3DEU_ses-02_part-02_label-phase2,2020.1.2,Win32,60,right,1.56198,3,0.513455,0,42,42,55,1,stimuli/objects/dogsled.jpg,left,old,216,,,,,,,,
,,,,,,,,1,2020-12-15_14h09.35.967,premce3DEU_ses-02_part-02_label-phase2,2020.1.2,Win32,60,right,2.03435,4,0.425555,0,43,43,41,1,stimuli/objects/zebra.jpg,left,old,202,,,,,,,,
,,,,,,,,1,2020-12-15_14h09.35.967,premce3DEU_ses-02_part-02_label-phase2,2020.1.2,Win32,60,left,1.543135,1,0.554485,0,44,44,105,1,stimuli/objects/beerbottle.jpg,left,old,266,,,,,,,,
,,,,,,,,1,2020-12-15_14h09.35.967,premce3DEU_ses-02_part-02_label-phase2,2020.1.2,Win32,60,right,1.019355,2,0.27092,0,45,45,80,1,stimuli/objects/floorlamp.jpg,right,new,241,,,,,,,,
,,,,,,,,1,2020-12-15_14h09.35.967,premce3DEU_ses-02_part-02_label-phase2,2020.1.2,Win32,60,left,1.506615,3,0.41399,0,46,46,60,1,stimuli/objects/hammerheadshark.jpg,right,new,221,,,,,,,,
,,,,,,,,1,2020-12-15_14h09.35.967,premce3DEU_ses-02_part-02_label-phase2,2020.1.2,Win32,60,right,1.02869,1,0.404105,0,47,47,49,1,stimuli/objects/surfboard.jpg,left,old,210,,,,,,,,
,,,,,,,,1,2020-12-15_14h09.35.967,premce3DEU_ses-02_part-02_label-phase2,2020.1.2,Win32,60,right,2.87511,3,0.43116,0,48,48,148,1,stimuli/objects/snowglobe.jpg,left,old,309,,,,,,,,
,,,,,,,,1,2020-12-15_14h09.35.967,premce3DEU_ses-02_part-02_label-phase2,2020.1.2,Win32,60,left,1.325325,4,0.58752,0,49,49,30,1,stimuli/objects/key07.jpg,left,old,191,,,,,,,,
,,,,,,,,1,2020-12-15_14h09.35.967,premce3DEU_ses-02_part-02_label-phase2,2020.1.2,Win32,60,right,1.138545,2,0.19079,0,50,50,155,1,stimuli/objects/fishingrod.jpg,left,old,316,,,,,,,,
,,,,,,,,1,2020-12-15_14h09.35.967,premce3DEU_ses-02_part-02_label-phase2,2020.1.2,Win32,60,right,1.52921,3,0.16573,0,51,51,118,1,stimuli/objects/wallclock.jpg,right,new,279,,,,,,,,
,,,,,,,,1,2020-12-15_14h09.35.967,premce3DEU_ses-02_part-02_label-phase2,2020.1.2,Win32,60,right,1.208425,1,0.325635,0,52,52,146,1,stimuli/objects/tie02.jpg,left,old,307,,,,,,,,
,,,,,,,,1,2020-12-15_14h09.35.967,premce3DEU_ses-02_part-02_label-phase2,2020.1.2,Win32,60,left,1.593945,4,0.35765,0,53,53,98,1,stimuli/objects/cashregister01.jpg,left,old,259,,,,,,,,
,,,,,,,,1,2020-12-15_14h09.35.967,premce3DEU_ses-02_part-02_label-phase2,2020.1.2,Win32,60,left,1.43539,2,0.423095,0,54,54,134,1,stimuli/objects/bikelock.jpg,right,new,295,,,,,,,,
,,,,,,,,1,2020-12-15_14h09.35.967,premce3DEU_ses-02_part-02_label-phase2,2020.1.2,Win32,60,right,1.80316,3,0.55734,0,55,55,153,1,stimuli/objects/fluorescentlightbulb.jpg,left,old,314,,,,,,,,
,,,,,,,,1,2020-12-15_14h09.35.967,premce3DEU_ses-02_part-02_label-phase2,2020.1.2,Win32,60,right,1.710545,1,0.228845,0,56,56,36,1,stimuli/objects/sandcastle.jpg,left,old,197,,,,,,,,
,,,,,,,,1,2020-12-15_14h09.35.967,premce3DEU_ses-02_part-02_label-phase2,2020.1.2,Win32,60,left,1.43643,2,0.33851,0,57,57,45,1,stimuli/objects/siamesecat.jpg,right,new,206,,,,,,,,
,,,,,,,,1,2020-12-15_14h09.35.967,premce3DEU_ses-02_part-02_label-phase2,2020.1.2,Win32,60,right,0.645985,3,0.0297,0,58,58,107,1,stimuli/objects/tambourine03.jpg,right,new,268,,,,,,,,
,,,,,,,,1,2020-12-15_14h09.35.967,premce3DEU_ses-02_part-02_label-phase2,2020.1.2,Win32,60,right,0.91729,1,0.36825,0,59,59,96,1,stimuli/objects/hockeystick.jpg,left,old,257,,,,,,,,
,,,,,,,,1,2020-12-15_14h09.35.967,premce3DEU_ses-02_part-02_label-phase2,2020.1.2,Win32,60,right,0.937335,3,0.42727,0,60,60,57,1,stimuli/objects/spaghetti01.jpg,right,new,218,,,,,,,,
,,,,,,,,1,2020-12-15_14h09.35.967,premce3DEU_ses-02_part-02_label-phase2,2020.1.2,Win32,60,right,0.638925,2,0.28911,0,61,61,3,1,stimuli/objects/bathtub.jpg,left,old,164,,,,,,,,
,,,,,,,,1,2020-12-15_14h09.35.967,premce3DEU_ses-02_part-02_label-phase2,2020.1.2,Win32,60,right,0.7067,1,0.27181,0,62,62,124,1,stimuli/objects/swing.jpg,right,new,285,,,,,,,,
,,,,,,,,1,2020-12-15_14h09.35.967,premce3DEU_ses-02_part-02_label-phase2,2020.1.2,Win32,60,right,3.00808,2,0.40211,0,63,63,92,1,stimuli/objects/mirror02.jpg,left,old,253,,,,,,,,
,,,,,,,,1,2020-12-15_14h09.35.967,premce3DEU_ses-02_part-02_label-phase2,2020.1.2,Win32,60,right,1.975205,3,0.261895,0,64,64,132,1,stimuli/objects/windshieldwiper02.jpg,left,old,293,,,,,,,,
,,,,,,,,1,2020-12-15_14h09.35.967,premce3DEU_ses-02_part-02_label-phase2,2020.1.2,Win32,60,right,0.937575,3,0.29361,0,65,65,108,1,stimuli/objects/cork02.jpg,left,old,269,,,,,,,,
,,,,,,,,1,2020-12-15_14h09.35.967,premce3DEU_ses-02_part-02_label-phase2,2020.1.2,Win32,60,right,0.7449,1,0.61211,0,66,66,74,1,stimuli/objects/turnstile.jpg,right,new,235,,,,,,,,
,,,,,,,,1,2020-12-15_14h09.35.967,premce3DEU_ses-02_part-02_label-phase2,2020.1.2,Win32,60,right,1.392115,4,0.231985,0,67,67,58,1,stimuli/objects/tricycle.jpg,left,old,219,,,,,,,,
,,,,,,,,1,2020-12-15_14h09.35.967,premce3DEU_ses-02_part-02_label-phase2,2020.1.2,Win32,60,right,0.52792,4,0.270395,0,68,68,126,1,stimuli/objects/birdfeeder.jpg,left,old,287,,,,,,,,
,,,,,,,,1,2020-12-15_14h09.35.967,premce3DEU_ses-02_part-02_label-phase2,2020.1.2,Win32,60,right,0.61375,4,0.156155,0,69,69,150,1,stimuli/objects/strap.jpg,right,new,311,,,,,,,,
,,,,,,,,1,2020-12-15_14h09.35.967,premce3DEU_ses-02_part-02_label-phase2,2020.1.2,Win32,60,right,0.69862,4,0.274905,0,70,70,142,1,stimuli/objects/lightswitch01.jpg,left,old,303,,,,,,,,
,,,,,,,,1,2020-12-15_14h09.35.967,premce3DEU_ses-02_part-02_label-phase2,2020.1.2,Win32,60,right,0.91637,4,0.04553,0,71,71,4,1,stimuli/objects/blender.jpg,left,old,165,,,,,,,,
,,,,,,,,1,2020-12-15_14h09.35.967,premce3DEU_ses-02_part-02_label-phase2,2020.1.2,Win32,60,right,1.46983,2,0.426245,0,72,72,56,1,stimuli/objects/toyanimal05.jpg,left,old,217,,,,,,,,
,,,,,,,,1,2020-12-15_14h09.35.967,premce3DEU_ses-02_part-02_label-phase2,2020.1.2,Win32,60,left,0.458635,3,0.30214,0,73,73,156,1,stimuli/objects/shovel01.jpg,left,old,317,,,,,,,,
,,,,,,,,1,2020-12-15_14h09.35.967,premce3DEU_ses-02_part-02_label-phase2,2020.1.2,Win32,60,left,0.65682,1,0.00167,0,74,74,128,1,stimuli/objects/chime.jpg,left,old,289,,,,,,,,
,,,,,,,,1,2020-12-15_14h09.35.967,premce3DEU_ses-02_part-02_label-phase2,2020.1.2,Win32,60,left,0.930715,4,0.001575,0,75,75,68,1,stimuli/objects/drumset.jpg,right,new,229,,,,,,,,
,,,,,,,,1,2020-12-15_14h09.35.967,premce3DEU_ses-02_part-02_label-phase2,2020.1.2,Win32,60,right,2.626095,1,0.33221,0,76,76,147,1,stimuli/objects/bleachers.jpg,left,old,308,,,,,,,,
,,,,,,,,1,2020-12-15_14h09.35.967,premce3DEU_ses-02_part-02_label-phase2,2020.1.2,Win32,60,right,0.82897,1,0.58076,0,77,77,65,1,stimuli/objects/spacerover.jpg,right,new,226,,,,,,,,
,,,,,,,,1,2020-12-15_14h09.35.967,premce3DEU_ses-02_part-02_label-phase2,2020.1.2,Win32,60,left,2.74722,3,0.014155,0,78,78,121,1,stimuli/objects/shield02.jpg,right,new,282,,,,,,,,
,,,,,,,,1,2020-12-15_14h09.35.967,premce3DEU_ses-02_part-02_label-phase2,2020.1.2,Win32,60,right,1.036045,2,0.164205,0,79,79,37,1,stimuli/objects/football.jpg,left,old,198,,,,,,,,
,,,,,,,,1,2020-12-15_14h09.35.967,premce3DEU_ses-02_part-02_label-phase2,2020.1.2,Win32,60,right,1.118735,1,0.23987,0,80,80,99,1,stimuli/objects/bacon.jpg,left,old,260,,,,,,,,
,,,,,,,,1,2020-12-15_14h09.35.967,premce3DEU_ses-02_part-02_label-phase2,2020.1.2,Win32,60,right,1.5011,3,0.36536,0,81,81,144,1,stimuli/objects/walkietalkie.jpg,right,new,305,,,,,,,,
,,,,,,,,1,2020-12-15_14h09.35.967,premce3DEU_ses-02_part-02_label-phase2,2020.1.2,Win32,60,right,1.151735,2,0.35973,0,82,82,46,1,stimuli/objects/kneepad01c.jpg,right,new,207,,,,,,,,
,,,,,,,,1,2020-12-15_14h09.35.967,premce3DEU_ses-02_part-02_label-phase2,2020.1.2,Win32,60,right,0.575695,4,0.306765,0,83,83,70,1,stimuli/objects/cormorant.jpg,right,new,231,,,,,,,,
,,,,,,,,1,2020-12-15_14h09.35.967,premce3DEU_ses-02_part-02_label-phase2,2020.1.2,Win32,60,right,1.06421,1,0.199055,0,84,84,62,1,stimuli/objects/painting.jpg,right,new,223,,,,,,,,
,,,,,,,,1,2020-12-15_14h09.35.967,premce3DEU_ses-02_part-02_label-phase2,2020.1.2,Win32,60,right,0.564815,3,0.219975,0,85,85,120,1,stimuli/objects/airhockeytable.jpg,right,new,281,,,,,,,,
,,,,,,,,1,2020-12-15_14h09.35.967,premce3DEU_ses-02_part-02_label-phase2,2020.1.2,Win32,60,right,0.5759,1,0.579315,0,86,86,91,1,stimuli/objects/shed02.jpg,right,new,252,,,,,,,,
,,,,,,,,1,2020-12-15_14h09.35.967,premce3DEU_ses-02_part-02_label-phase2,2020.1.2,Win32,60,right,0.88981,3,0.36405,0,87,87,11,1,stimuli/objects/dolphin01.jpg,left,old,172,,,,,,,,
,,,,,,,,1,2020-12-15_14h09.35.967,premce3DEU_ses-02_part-02_label-phase2,2020.1.2,Win32,60,right,0.450465,1,0.171025,0,88,88,154,1,stimuli/objects/frisbee.jpg,left,old,315,,,,,,,,
,,,,,,,,1,2020-12-15_14h09.35.967,premce3DEU_ses-02_part-02_label-phase2,2020.1.2,Win32,60,left,0.47495,3,0.00283,0,89,89,19,1,stimuli/objects/zipper.jpg,right,new,180,,,,,,,,
,,,,,,,,1,2020-12-15_14h09.35.967,premce3DEU_ses-02_part-02_label-phase2,2020.1.2,Win32,60,right,0.73101,1,0.00255,0,90,90,18,1,stimuli/objects/showerhead01.jpg,left,old,179,,,,,,,,
,,,,,,,,1,2020-12-15_14h09.35.967,premce3DEU_ses-02_part-02_label-phase2,2020.1.2,Win32,60,left,0.864315,4,0.691865,0,91,91,21,1,stimuli/objects/gorilla.jpg,right,new,182,,,,,,,,
,,,,,,,,1,2020-12-15_14h09.35.967,premce3DEU_ses-02_part-02_label-phase2,2020.1.2,Win32,60,right,0.7981,1,0.255425,0,92,92,1,1,stimuli/objects/tent.jpg,left,old,162,,,,,,,,
,,,,,,,,1,2020-12-15_14h09.35.967,premce3DEU_ses-02_part-02_label-phase2,2020.1.2,Win32,60,right,0.68773,3,0.339455,0,93,93,149,1,stimuli/objects/mortarandpestle.jpg,right,new,310,,,,,,,,
,,,,,,,,1,2020-12-15_14h09.35.967,premce3DEU_ses-02_part-02_label-phase2,2020.1.2,Win32,60,right,0.438325,1,0.43016,0,94,94,87,1,stimuli/objects/chipmunk.jpg,left,old,248,,,,,,,,
,,,,,,,,1,2020-12-15_14h09.35.967,premce3DEU_ses-02_part-02_label-phase2,2020.1.2,Win32,60,right,1.295345,2,0.27831,0,95,95,127,1,stimuli/objects/shelf.jpg,right,new,288,,,,,,,,
,,,,,,,,1,2020-12-15_14h09.35.967,premce3DEU_ses-02_part-02_label-phase2,2020.1.2,Win32,60,right,0.278455,1,0.563085,0,96,96,122,1,stimuli/objects/lip.jpg,right,new,283,,,,,,,,
,,,,,,,,1,2020-12-15_14h09.35.967,premce3DEU_ses-02_part-02_label-phase2,2020.1.2,Win32,60,right,0.92551,4,0.22547,0,97,97,138,1,stimuli/objects/ladybug03.jpg,right,new,299,,,,,,,,
,,,,,,,,1,2020-12-15_14h09.35.967,premce3DEU_ses-02_part-02_label-phase2,2020.1.2,Win32,60,right,0.733835,2,0.165955,0,98,98,22,1,stimuli/objects/crab01.jpg,left,old,183,,,,,,,,
,,,,,,,,1,2020-12-15_14h09.35.967,premce3DEU_ses-02_part-02_label-phase2,2020.1.2,Win32,60,right,0.89006,3,0.204125,0,99,99,7,1,stimuli/objects/bolt01a.jpg,left,old,168,,,,,,,,
,,,,,,,,1,2020-12-15_14h09.35.967,premce3DEU_ses-02_part-02_label-phase2,2020.1.2,Win32,60,right,0.676875,1,0.16314,0,100,100,113,1,stimuli/objects/bluejay.jpg,right,new,274,,,,,,,,
,,,,,,,,1,2020-12-15_14h09.35.967,premce3DEU_ses-02_part-02_label-phase2,2020.1.2,Win32,60,left,0.74846,3,0.41694,0,101,101,31,1,stimuli/objects/horseshoe.jpg,right,new,192,,,,,,,,
,,,,,,,,1,2020-12-15_14h09.35.967,premce3DEU_ses-02_part-02_label-phase2,2020.1.2,Win32,60,right,0.49643,2,0.29863,0,102,102,71,1,stimuli/objects/tennisracket.jpg,right,new,232,,,,,,,,
,,,,,,,,1,2020-12-15_14h09.35.967,premce3DEU_ses-02_part-02_label-phase2,2020.1.2,Win32,60,right,1.11705,1,0.001615,0,103,103,130,1,stimuli/objects/pirateflag.jpg,left,old,291,,,,,,,,
,,,,,,,,1,2020-12-15_14h09.35.967,premce3DEU_ses-02_part-02_label-phase2,2020.1.2,Win32,60,right,1.81723,3,0.025735,0,104,104,54,1,stimuli/objects/acousticguitar02.jpg,right,new,215,,,,,,,,
,,,,,,,,1,2020-12-15_14h09.35.967,premce3DEU_ses-02_part-02_label-phase2,2020.1.2,Win32,60,right,3.36637,3,2.818485,0,105,105,28,1,stimuli/objects/car.jpg,left,old,189,,,,,,,,
,,,,,,,,1,2020-12-15_14h09.35.967,premce3DEU_ses-02_part-02_label-phase2,2020.1.2,Win32,60,right,3.26379,1,1.01516,0,106,106,51,1,stimuli/objects/kangaroo01.jpg,right,new,212,,,,,,,,
,,,,,,,,1,2020-12-15_14h09.35.967,premce3DEU_ses-02_part-02_label-phase2,2020.1.2,Win32,60,right,1.064985,4,0.49135,0,107,107,6,1,stimuli/objects/popcorn.jpg,right,new,167,,,,,,,,
,,,,,,,,1,2020-12-15_14h09.35.967,premce3DEU_ses-02_part-02_label-phase2,2020.1.2,Win32,60,right,0.876295,2,0.21511,0,108,108,13,1,stimuli/objects/sailboat.jpg,left,old,174,,,,,,,,
,,,,,,,,1,2020-12-15_14h09.35.967,premce3DEU_ses-02_part-02_label-phase2,2020.1.2,Win32,60,right,0.681515,1,0.075505,0,109,109,14,1,stimuli/objects/ipad02.jpg,left,old,175,,,,,,,,
,,,,,,,,1,2020-12-15_14h09.35.967,premce3DEU_ses-02_part-02_label-phase2,2020.1.2,Win32,60,left,1.212575,1,0.87606,0,110,110,135,1,stimuli/objects/penguin.jpg,right,new,296,,,,,,,,
,,,,,,,,1,2020-12-15_14h09.35.967,premce3DEU_ses-02_part-02_label-phase2,2020.1.2,Win32,60,right,0.763845,2,0.24823,0,111,111,77,1,stimuli/objects/electricguitar01.jpg,left,old,238,,,,,,,,
,,,,,,,,1,2020-12-15_14h09.35.967,premce3DEU_ses-02_part-02_label-phase2,2020.1.2,Win32,60,left,0.80402,3,0.37774,0,112,112,102,1,stimuli/objects/baseballglove.jpg,left,old,263,,,,,,,,
,,,,,,,,1,2020-12-15_14h09.35.967,premce3DEU_ses-02_part-02_label-phase2,2020.1.2,Win32,60,left,1.56903,3,0.309125,0,113,113,61,1,stimuli/objects/parrot01.jpg,right,new,222,,,,,,,,
,,,,,,,,1,2020-12-15_14h09.35.967,premce3DEU_ses-02_part-02_label-phase2,2020.1.2,Win32,60,right,0.96758,1,0.204475,0,114,114,5,1,stimuli/objects/wheelchair.jpg,left,old,166,,,,,,,,
,,,,,,,,1,2020-12-15_14h09.35.967,premce3DEU_ses-02_part-02_label-phase2,2020.1.2,Win32,60,right,1.066115,3,0.26815,0,115,115,84,1,stimuli/objects/carbattery.jpg,right,new,245,,,,,,,,
,,,,,,,,1,2020-12-15_14h09.35.967,premce3DEU_ses-02_part-02_label-phase2,2020.1.2,Win32,60,right,0.812675,1,0.165785,0,116,116,101,1,stimuli/objects/microphone01.jpg,right,new,262,,,,,,,,
,,,,,,,,1,2020-12-15_14h09.35.967,premce3DEU_ses-02_part-02_label-phase2,2020.1.2,Win32,60,right,0.88572,4,0.002285,0,117,117,76,1,stimuli/objects/statue.jpg,right,new,237,,,,,,,,
,,,,,,,,1,2020-12-15_14h09.35.967,premce3DEU_ses-02_part-02_label-phase2,2020.1.2,Win32,60,right,0.581675,2,0.314655,0,118,118,116,1,stimuli/objects/rollerblade.jpg,left,old,277,,,,,,,,
,,,,,,,,1,2020-12-15_14h09.35.967,premce3DEU_ses-02_part-02_label-phase2,2020.1.2,Win32,60,left,0.8464,3,0.26165,0,119,119,34,1,stimuli/objects/shelves.jpg,left,old,195,,,,,,,,
,,,,,,,,1,2020-12-15_14h09.35.967,premce3DEU_ses-02_part-02_label-phase2,2020.1.2,Win32,60,left,0.986715,1,0.2582,0,120,120,137,1,stimuli/objects/waterfall.jpg,right,new,298,,,,,,,,
,,,,,,,,1,2020-12-15_14h09.35.967,premce3DEU_ses-02_part-02_label-phase2,2020.1.2,Win32,60,left,0.46659,4,0.23461,0,121,121,17,1,stimuli/objects/saltshaker03a.jpg,right,new,178,,,,,,,,
,,,,,,,,1,2020-12-15_14h09.35.967,premce3DEU_ses-02_part-02_label-phase2,2020.1.2,Win32,60,left,1.207555,2,0.22338,0,122,122,141,1,stimuli/objects/gong.jpg,left,old,302,,,,,,,,
,,,,,,,,1,2020-12-15_14h09.35.967,premce3DEU_ses-02_part-02_label-phase2,2020.1.2,Win32,60,right,2.432705,2,0.755755,0,123,123,143,1,stimuli/objects/taxisign.jpg,right,new,304,,,,,,,,
,,,,,,,,1,2020-12-15_14h09.35.967,premce3DEU_ses-02_part-02_label-phase2,2020.1.2,Win32,60,right,1.25164,1,0.133445,0,124,124,67,1,stimuli/objects/snowshovel.jpg,left,old,228,,,,,,,,
,,,,,,,,1,2020-12-15_14h09.35.967,premce3DEU_ses-02_part-02_label-phase2,2020.1.2,Win32,60,right,1.35912,2,0.25594,0,125,125,24,1,stimuli/objects/jaguar.jpg,left,old,185,,,,,,,,
,,,,,,,,1,2020-12-15_14h09.35.967,premce3DEU_ses-02_part-02_label-phase2,2020.1.2,Win32,60,right,0.911005,3,0.13404,0,126,126,43,1,stimuli/objects/poolcue.jpg,right,new,204,,,,,,,,
,,,,,,,,1,2020-12-15_14h09.35.967,premce3DEU_ses-02_part-02_label-phase2,2020.1.2,Win32,60,right,0.60345,4,0.169025,0,127,127,125,1,stimuli/objects/whiteout.jpg,left,old,286,,,,,,,,
,,,,,,,,1,2020-12-15_14h09.35.967,premce3DEU_ses-02_part-02_label-phase2,2020.1.2,Win32,60,right,0.694745,1,0.23945,0,128,128,50,1,stimuli/objects/cowbell.jpg,right,new,211,,,,,,,,
,,,,,,,,1,2020-12-15_14h09.35.967,premce3DEU_ses-02_part-02_label-phase2,2020.1.2,Win32,60,left,0.29454,3,0.530885,0,129,129,106,1,stimuli/objects/squirrel.jpg,right,new,267,,,,,,,,
,,,,,,,,1,2020-12-15_14h09.35.967,premce3DEU_ses-02_part-02_label-phase2,2020.1.2,Win32,60,left,0.43979,1,0.600715,0,130,130,23,1,stimuli/objects/graduationcap.jpg,right,new,184,,,,,,,,
,,,,,,,,1,2020-12-15_14h09.35.967,premce3DEU_ses-02_part-02_label-phase2,2020.1.2,Win32,60,left,1.788015,1,0.00222,0,131,131,9,1,stimuli/objects/flag.jpg,right,new,170,,,,,,,,
,,,,,,,,1,2020-12-15_14h09.35.967,premce3DEU_ses-02_part-02_label-phase2,2020.1.2,Win32,60,left,0.56704,1,0.163975,0,132,132,152,1,stimuli/objects/harmonica.jpg,right,new,313,,,,,,,,
,,,,,,,,1,2020-12-15_14h09.35.967,premce3DEU_ses-02_part-02_label-phase2,2020.1.2,Win32,60,right,0.600365,3,0.10752,0,133,133,40,1,stimuli/objects/beehive.jpg,right,new,201,,,,,,,,
,,,,,,,,1,2020-12-15_14h09.35.967,premce3DEU_ses-02_part-02_label-phase2,2020.1.2,Win32,60,right,0.919345,2,0.2642,0,134,134,20,1,stimuli/objects/toysoldier01b.jpg,right,new,181,,,,,,,,
,,,,,,,,1,2020-12-15_14h09.35.967,premce3DEU_ses-02_part-02_label-phase2,2020.1.2,Win32,60,right,1.24731,4,0.727125,0,135,135,97,1,stimuli/objects/greywolf.jpg,left,old,258,,,,,,,,
,,,,,,,,1,2020-12-15_14h09.35.967,premce3DEU_ses-02_part-02_label-phase2,2020.1.2,Win32,60,right,1.16439,1,0.227165,0,136,136,26,1,stimuli/objects/schoolbus.jpg,right,new,187,,,,,,,,
,,,,,,,,1,2020-12-15_14h09.35.967,premce3DEU_ses-02_part-02_label-phase2,2020.1.2,Win32,60,left,0.42693,3,0.379035,0,137,137,27,1,stimuli/objects/tombstone.jpg,right,new,188,,,,,,,,
,,,,,,,,1,2020-12-15_14h09.35.967,premce3DEU_ses-02_part-02_label-phase2,2020.1.2,Win32,60,left,0.296145,2,0.179925,0,138,138,15,1,stimuli/objects/stool01.jpg,left,old,176,,,,,,,,
,,,,,,,,1,2020-12-15_14h09.35.967,premce3DEU_ses-02_part-02_label-phase2,2020.1.2,Win32,60,left,0.827015,3,0.30331,0,139,139,73,1,stimuli/objects/barrel01.jpg,left,old,234,,,,,,,,
,,,,,,,,1,2020-12-15_14h09.35.967,premce3DEU_ses-02_part-02_label-phase2,2020.1.2,Win32,60,left,1.453655,1,0.311755,0,140,140,2,1,stimuli/objects/moon.jpg,left,old,163,,,,,,,,
,,,,,,,,1,2020-12-15_14h09.35.967,premce3DEU_ses-02_part-02_label-phase2,2020.1.2,Win32,60,right,0.70966,3,0.025575,0,141,141,39,1,stimuli/objects/desktopcomputer.jpg,left,old,200,,,,,,,,
,,,,,,,,1,2020-12-15_14h09.35.967,premce3DEU_ses-02_part-02_label-phase2,2020.1.2,Win32,60,right,2.22933,3,0.57603,0,142,142,52,1,stimuli/objects/acorn.jpg,left,old,213,,,,,,,,
,,,,,,,,1,2020-12-15_14h09.35.967,premce3DEU_ses-02_part-02_label-phase2,2020.1.2,Win32,60,right,3.39466,2,0.003145,0,143,143,35,1,stimuli/objects/xylophone.jpg,left,old,196,,,,,,,,
,,,,,,,,1,2020-12-15_14h09.35.967,premce3DEU_ses-02_part-02_label-phase2,2020.1.2,Win32,60,right,1.025645,4,0.38392,0,144,144,157,1,stimuli/objects/eagle.jpg,right,new,318,,,,,,,,
,,,,,,,,1,2020-12-15_14h09.35.967,premce3DEU_ses-02_part-02_label-phase2,2020.1.2,Win32,60,right,0.40911,4,1.142495,0,145,145,93,1,stimuli/objects/slushiemachine.jpg,right,new,254,,,,,,,,
,,,,,,,,1,2020-12-15_14h09.35.967,premce3DEU_ses-02_part-02_label-phase2,2020.1.2,Win32,60,right,0.619435,2,0.00244,0,146,146,114,1,stimuli/objects/cymbal.jpg,left,old,275,,,,,,,,
,,,,,,,,1,2020-12-15_14h09.35.967,premce3DEU_ses-02_part-02_label-phase2,2020.1.2,Win32,60,right,0.462385,4,0.09841,0,147,147,129,1,stimuli/objects/escalator.jpg,left,old,290,,,,,,,,
,,,,,,,,1,2020-12-15_14h09.35.967,premce3DEU_ses-02_part-02_label-phase2,2020.1.2,Win32,60,right,0.511355,2,0.001995,0,148,148,75,1,stimuli/objects/bookshelf.jpg,left,old,236,,,,,,,,
,,,,,,,,1,2020-12-15_14h09.35.967,premce3DEU_ses-02_part-02_label-phase2,2020.1.2,Win32,60,right,0.314095,2,0.150855,0,149,149,78,1,stimuli/objects/hockeypuck.jpg,left,old,239,,,,,,,,
,,,,,,,,1,2020-12-15_14h09.35.967,premce3DEU_ses-02_part-02_label-phase2,2020.1.2,Win32,60,right,0.469445,2,0.002775,0,150,150,83,1,stimuli/objects/recyclingbin.jpg,left,old,244,,,,,,,,
,,,,,,,,1,2020-12-15_14h09.35.967,premce3DEU_ses-02_part-02_label-phase2,2020.1.2,Win32,60,right,0.363285,2,0.97265,0,151,151,53,1,stimuli/objects/parachute.jpg,right,new,214,,,,,,,,
,,,,,,,,1,2020-12-15_14h09.35.967,premce3DEU_ses-02_part-02_label-phase2,2020.1.2,Win32,60,right,0.53968,1,0.075545,0,152,152,79,1,stimuli/objects/polarbear.jpg,left,old,240,,,,,,,,
,,,,,,,,1,2020-12-15_14h09.35.967,premce3DEU_ses-02_part-02_label-phase2,2020.1.2,Win32,60,right,0.37604,3,1.45208,0,153,153,82,1,stimuli/objects/duck01.jpg,left,old,243,,,,,,,,
,,,,,,,,1,2020-12-15_14h09.35.967,premce3DEU_ses-02_part-02_label-phase2,2020.1.2,Win32,60,right,0.601625,3,0.11807,0,154,154,16,1,stimuli/objects/dartboard.jpg,left,old,177,,,,,,,,
,,,,,,,,1,2020-12-15_14h09.35.967,premce3DEU_ses-02_part-02_label-phase2,2020.1.2,Win32,60,right,0.68659,2,0.125505,0,155,155,145,1,stimuli/objects/rooster.jpg,right,new,306,,,,,,,,
,,,,,,,,1,2020-12-15_14h09.35.967,premce3DEU_ses-02_part-02_label-phase2,2020.1.2,Win32,60,left,0.370045,1,1.329895,0,156,156,100,1,stimuli/objects/doubledoors.jpg,left,old,261,,,,,,,,
,,,,,,,,1,2020-12-15_14h09.35.967,premce3DEU_ses-02_part-02_label-phase2,2020.1.2,Win32,60,left,1.050765,4,0.28224,0,157,157,0,1,stimuli/objects/hulahoop.jpg,left,old,161,,,,,,,,
,,,,,,,,1,2020-12-15_14h09.35.967,premce3DEU_ses-02_part-02_label-phase2,2020.1.2,Win32,60,right,0.79464,2,0.259235,0,158,158,59,1,stimuli/objects/nosmokingsign.jpg,right,new,220,,,,,,,,
,,,,,,,,1,2020-12-15_14h09.35.967,premce3DEU_ses-02_part-02_label-phase2,2020.1.2,Win32,60,left,0.89636,3,0.25467,0,159,159,151,1,stimuli/objects/jellyfish.jpg,left,old,312,,,,,,,,
,,,,,,,,1,2020-12-15_14h09.35.967,premce3DEU_ses-02_part-02_label-phase2,2020.1.2,Win32,60,,,,,,,,,,,,,,space,3.537235,0,0,0,1,1,ImagesforRecog2.csv
,,,,,,,,1,2020-12-15_14h09.35.967,premce3DEU_ses-02_part-02_label-phase2,2020.1.2,Win32,60,right,0.81319,3,1.16822,0,0,0,20,1,stimuli/objects/accordion01.jpg,right,new,21,,,,,,,,
,,,,,,,,1,2020-12-15_14h09.35.967,premce3DEU_ses-02_part-02_label-phase2,2020.1.2,Win32,60,left,1.906245,1,0.94496,0,1,1,110,1,stimuli/objects/foosballtable.jpg,right,new,111,,,,,,,,
,,,,,,,,1,2020-12-15_14h09.35.967,premce3DEU_ses-02_part-02_label-phase2,2020.1.2,Win32,60,right,2.591505,2,0.49143,0,2,2,142,1,stimuli/objects/giraffe.jpg,left,old,143,,,,,,,,
,,,,,,,,1,2020-12-15_14h09.35.967,premce3DEU_ses-02_part-02_label-phase2,2020.1.2,Win32,60,right,2.296855,1,0.55675,0,3,3,133,1,stimuli/objects/sink.jpg,right,new,134,,,,,,,,
,,,,,,,,1,2020-12-15_14h09.35.967,premce3DEU_ses-02_part-02_label-phase2,2020.1.2,Win32,60,left,1.1218,4,1.157525,0,4,4,78,1,stimuli/objects/monarchbutterfly.jpg,left,old,79,,,,,,,,
,,,,,,,,1,2020-12-15_14h09.35.967,premce3DEU_ses-02_part-02_label-phase2,2020.1.2,Win32,60,right,1.363705,2,0.34373,0,5,5,116,1,stimuli/objects/toucan.jpg,right,new,117,,,,,,,,
,,,,,,,,1,2020-12-15_14h09.35.967,premce3DEU_ses-02_part-02_label-phase2,2020.1.2,Win32,60,left,0.81194,1,0.295925,0,6,6,108,1,stimuli/objects/communitymailbox.jpg,left,old,109,,,,,,,,
,,,,,,,,1,2020-12-15_14h09.35.967,premce3DEU_ses-02_part-02_label-phase2,2020.1.2,Win32,60,right,1.23086,2,0.2863,0,7,7,107,1,stimuli/objects/musicstand.jpg,left,old,108,,,,,,,,
,,,,,,,,1,2020-12-15_14h09.35.967,premce3DEU_ses-02_part-02_label-phase2,2020.1.2,Win32,60,right,0.946945,1,0.173655,0,8,8,136,1,stimuli/objects/wheat.jpg,right,new,137,,,,,,,,
,,,,,,,,1,2020-12-15_14h09.35.967,premce3DEU_ses-02_part-02_label-phase2,2020.1.2,Win32,60,left,1.63611,3,0.17448,0,9,9,141,1,stimuli/objects/stroller.jpg,right,new,142,,,,,,,,
,,,,,,,,1,2020-12-15_14h09.35.967,premce3DEU_ses-02_part-02_label-phase2,2020.1.2,Win32,60,right,1.05564,1,0.25059,0,10,10,127,1,stimuli/objects/sausage.jpg,left,old,128,,,,,,,,
,,,,,,,,1,2020-12-15_14h09.35.967,premce3DEU_ses-02_part-02_label-phase2,2020.1.2,Win32,60,right,0.76942,3,0.18789,0,11,11,135,1,stimuli/objects/basketball01.jpg,left,old,136,,,,,,,,
,,,,,,,,1,2020-12-15_14h09.35.967,premce3DEU_ses-02_part-02_label-phase2,2020.1.2,Win32,60,left,1.333705,4,0.245035,0,12,12,120,1,stimuli/objects/panda.jpg,left,old,121,,,,,,,,
,,,,,,,,1,2020-12-15_14h09.35.967,premce3DEU_ses-02_part-02_label-phase2,2020.1.2,Win32,60,right,1.0107,1,0.182645,0,13,13,129,1,stimuli/objects/lawnmower.jpg,right,new,130,,,,,,,,
,,,,,,,,1,2020-12-15_14h09.35.967,premce3DEU_ses-02_part-02_label-phase2,2020.1.2,Win32,60,right,0.953795,2,0.2946,0,14,14,34,1,stimuli/objects/aquarium.jpg,left,old,35,,,,,,,,
,,,,,,,,1,2020-12-15_14h09.35.967,premce3DEU_ses-02_part-02_label-phase2,2020.1.2,Win32,60,left,1.101295,4,0.239835,0,15,15,88,1,stimuli/objects/jackrabbit.jpg,left,old,89,,,,,,,,
,,,,,,,,1,2020-12-15_14h09.35.967,premce3DEU_ses-02_part-02_label-phase2,2020.1.2,Win32,60,right,0.8616,1,0.276045,0,16,16,70,1,stimuli/objects/balcony02.jpg,left,old,71,,,,,,,,
,,,,,,,,1,2020-12-15_14h09.35.967,premce3DEU_ses-02_part-02_label-phase2,2020.1.2,Win32,60,right,0.912665,3,0.002375,0,17,17,60,1,stimuli/objects/banjo.jpg,right,new,61,,,,,,,,
,,,,,,,,1,2020-12-15_14h09.35.967,premce3DEU_ses-02_part-02_label-phase2,2020.1.2,Win32,60,right,0.844325,1,0.97664,0,18,18,123,1,stimuli/objects/lintroller.jpg,left,old,124,,,,,,,,
,,,,,,,,1,2020-12-15_14h09.35.967,premce3DEU_ses-02_part-02_label-phase2,2020.1.2,Win32,60,left,2.818595,4,0.264125,0,19,19,130,1,stimuli/objects/tulip02.jpg,left,old,131,,,,,,,,
,,,,,,,,1,2020-12-15_14h09.35.967,premce3DEU_ses-02_part-02_label-phase2,2020.1.2,Win32,60,right,0.64402,2,0.710055,0,20,20,132,1,stimuli/objects/shower.jpg,left,old,133,,,,,,,,
,,,,,,,,1,2020-12-15_14h09.35.967,premce3DEU_ses-02_part-02_label-phase2,2020.1.2,Win32,60,right,1.053435,3,0.23084,0,21,21,55,1,stimuli/objects/drumstick.jpg,right,new,56,,,,,,,,
,,,,,,,,1,2020-12-15_14h09.35.967,premce3DEU_ses-02_part-02_label-phase2,2020.1.2,Win32,60,right,1.369855,1,0.225675,0,22,22,67,1,stimuli/objects/volleyball.jpg,left,old,68,,,,,,,,
,,,,,,,,1,2020-12-15_14h09.35.967,premce3DEU_ses-02_part-02_label-phase2,2020.1.2,Win32,60,right,1.512865,4,0.195725,0,23,23,44,1,stimuli/objects/artichoke01b.jpg,left,old,45,,,,,,,,
,,,,,,,,1,2020-12-15_14h09.35.967,premce3DEU_ses-02_part-02_label-phase2,2020.1.2,Win32,60,right,1.02239,2,0.92261,0,24,24,104,1,stimuli/objects/porcupine.jpg,left,old,105,,,,,,,,
,,,,,,,,1,2020-12-15_14h09.35.967,premce3DEU_ses-02_part-02_label-phase2,2020.1.2,Win32,60,right,0.800405,3,0.690265,0,25,25,71,1,stimuli/objects/bed.jpg,right,new,72,,,,,,,,
,,,,,,,,1,2020-12-15_14h09.35.967,premce3DEU_ses-02_part-02_label-phase2,2020.1.2,Win32,60,right,1.380605,4,0.43661,0,26,26,38,1,stimuli/objects/pig.jpg,right,new,39,,,,,,,,
,,,,,,,,1,2020-12-15_14h09.35.967,premce3DEU_ses-02_part-02_label-phase2,2020.1.2,Win32,60,left,1.183085,4,0.10803,0,27,27,98,1,stimuli/objects/handbrush02.jpg,left,old,99,,,,,,,,
,,,,,,,,1,2020-12-15_14h09.35.967,premce3DEU_ses-02_part-02_label-phase2,2020.1.2,Win32,60,right,0.825875,2,0.155605,0,28,28,103,1,stimuli/objects/salmon.jpg,left,old,104,,,,,,,,
,,,,,,,,1,2020-12-15_14h09.35.967,premce3DEU_ses-02_part-02_label-phase2,2020.1.2,Win32,60,right,0.73175,3,0.176985,0,29,29,33,1,stimuli/objects/caribou02.jpg,right,new,34,,,,,,,,
,,,,,,,,1,2020-12-15_14h09.35.967,premce3DEU_ses-02_part-02_label-phase2,2020.1.2,Win32,60,right,0.568545,1,0.34862,0,30,30,139,1,stimuli/objects/safe.jpg,right,new,140,,,,,,,,
,,,,,,,,1,2020-12-15_14h09.35.967,premce3DEU_ses-02_part-02_label-phase2,2020.1.2,Win32,60,right,0.676565,4,0.17891,0,31,31,118,1,stimuli/objects/microwave.jpg,left,old,119,,,,,,,,
,,,,,,,,1,2020-12-15_14h09.35.967,premce3DEU_ses-02_part-02_label-phase2,2020.1.2,Win32,60,right,1.66678,2,0.243385,0,32,32,1,1,stimuli/objects/pooltable.jpg,right,new,2,,,,,,,,
,,,,,,,,1,2020-12-15_14h09.35.967,premce3DEU_ses-02_part-02_label-phase2,2020.1.2,Win32,60,right,0.578465,3,0.211725,0,33,33,86,1,stimuli/objects/chimney.jpg,right,new,87,,,,,,,,
,,,,,,,,1,2020-12-15_14h09.35.967,premce3DEU_ses-02_part-02_label-phase2,2020.1.2,Win32,60,right,0.92577,1,0.28834,0,34,34,126,1,stimuli/objects/bat.jpg,right,new,127,,,,,,,,
,,,,,,,,1,2020-12-15_14h09.35.967,premce3DEU_ses-02_part-02_label-phase2,2020.1.2,Win32,60,left,0.6136,3,0.25348,0,35,35,41,1,stimuli/objects/faxmachine.jpg,right,new,42,,,,,,,,
,,,,,,,,1,2020-12-15_14h09.35.967,premce3DEU_ses-02_part-02_label-phase2,2020.1.2,Win32,60,right,0.561935,1,0.249625,0,36,36,45,1,stimuli/objects/fridge.jpg,left,old,46,,,,,,,,
,,,,,,,,1,2020-12-15_14h09.35.967,premce3DEU_ses-02_part-02_label-phase2,2020.1.2,Win32,60,left,1.076135,1,0.396585,0,37,37,31,1,stimuli/objects/file.jpg,left,old,32,,,,,,,,
,,,,,,,,1,2020-12-15_14h09.35.967,premce3DEU_ses-02_part-02_label-phase2,2020.1.2,Win32,60,left,1.83509,1,0.979115,0,38,38,57,1,stimuli/objects/cupcake.jpg,right,new,58,,,,,,,,
,,,,,,,,1,2020-12-15_14h09.35.967,premce3DEU_ses-02_part-02_label-phase2,2020.1.2,Win32,60,right,1.01713,2,0.320655,0,39,39,128,1,stimuli/objects/makiroll.jpg,right,new,129,,,,,,,,
,,,,,,,,1,2020-12-15_14h09.35.967,premce3DEU_ses-02_part-02_label-phase2,2020.1.2,Win32,60,right,0.83052,3,0.20386,0,40,40,62,1,stimuli/objects/trophy01.jpg,left,old,63,,,,,,,,
,,,,,,,,1,2020-12-15_14h09.35.967,premce3DEU_ses-02_part-02_label-phase2,2020.1.2,Win32,60,right,1.19755,2,0.334445,0,41,41,49,1,stimuli/objects/triangle.jpg,left,old,50,,,,,,,,
,,,,,,,,1,2020-12-15_14h09.35.967,premce3DEU_ses-02_part-02_label-phase2,2020.1.2,Win32,60,left,2.242905,1,0.715915,0,42,42,17,1,stimuli/objects/parkingmeter.jpg,right,new,18,,,,,,,,
,,,,,,,,1,2020-12-15_14h09.35.967,premce3DEU_ses-02_part-02_label-phase2,2020.1.2,Win32,60,right,0.89503,4,0.62549,0,43,43,56,1,stimuli/objects/jeans01.jpg,left,old,57,,,,,,,,
,,,,,,,,1,2020-12-15_14h09.35.967,premce3DEU_ses-02_part-02_label-phase2,2020.1.2,Win32,60,right,0.729555,2,0.518285,0,44,44,21,1,stimuli/objects/tire.jpg,right,new,22,,,,,,,,
,,,,,,,,1,2020-12-15_14h09.35.967,premce3DEU_ses-02_part-02_label-phase2,2020.1.2,Win32,60,right,0.547285,3,0.5078,0,45,45,51,1,stimuli/objects/road02.jpg,right,new,52,,,,,,,,
,,,,,,,,1,2020-12-15_14h09.35.967,premce3DEU_ses-02_part-02_label-phase2,2020.1.2,Win32,60,left,1.774655,3,0.29658,0,46,46,148,1,stimuli/objects/peacock.jpg,right,new,149,,,,,,,,
,,,,,,,,1,2020-12-15_14h09.35.967,premce3DEU_ses-02_part-02_label-phase2,2020.1.2,Win32,60,right,0.839475,1,0.21287,0,47,47,83,1,stimuli/objects/flugglehorn.jpg,right,new,84,,,,,,,,
,,,,,,,,1,2020-12-15_14h09.35.967,premce3DEU_ses-02_part-02_label-phase2,2020.1.2,Win32,60,right,1.11174,2,0.16931,0,48,48,58,1,stimuli/objects/beaver.jpg,left,old,59,,,,,,,,
,,,,,,,,1,2020-12-15_14h09.35.967,premce3DEU_ses-02_part-02_label-phase2,2020.1.2,Win32,60,right,0.75652,1,0.006945,0,49,49,14,1,stimuli/objects/canoepaddle02.jpg,left,old,15,,,,,,,,
,,,,,,,,1,2020-12-15_14h09.35.967,premce3DEU_ses-02_part-02_label-phase2,2020.1.2,Win32,60,right,0.667555,3,0.22732,0,50,50,11,1,stimuli/objects/cannon.jpg,left,old,12,,,,,,,,
,,,,,,,,1,2020-12-15_14h09.35.967,premce3DEU_ses-02_part-02_label-phase2,2020.1.2,Win32,60,right,0.301775,3,0.399915,0,51,51,97,1,stimuli/objects/dreamcatcher.jpg,left,old,98,,,,,,,,
,,,,,,,,1,2020-12-15_14h09.35.967,premce3DEU_ses-02_part-02_label-phase2,2020.1.2,Win32,60,right,0.31299,3,0.079235,0,52,52,30,1,stimuli/objects/fortunecookie.jpg,right,new,31,,,,,,,,
,,,,,,,,1,2020-12-15_14h09.35.967,premce3DEU_ses-02_part-02_label-phase2,2020.1.2,Win32,60,right,1.159075,3,0.7508,0,53,53,28,1,stimuli/objects/seaturtle.jpg,left,old,29,,,,,,,,
,,,,,,,,1,2020-12-15_14h09.35.967,premce3DEU_ses-02_part-02_label-phase2,2020.1.2,Win32,60,right,0.6716,3,0.211605,0,54,54,155,1,stimuli/objects/calendar.jpg,right,new,156,,,,,,,,
,,,,,,,,1,2020-12-15_14h09.35.967,premce3DEU_ses-02_part-02_label-phase2,2020.1.2,Win32,60,right,0.797035,3,0.126455,0,55,55,156,1,stimuli/objects/skateboard.jpg,left,old,157,,,,,,,,
,,,,,,,,1,2020-12-15_14h09.35.967,premce3DEU_ses-02_part-02_label-phase2,2020.1.2,Win32,60,right,0.643485,1,0.005645,0,56,56,150,1,stimuli/objects/eiffeltower.jpg,right,new,151,,,,,,,,
,,,,,,,,1,2020-12-15_14h09.35.967,premce3DEU_ses-02_part-02_label-phase2,2020.1.2,Win32,60,right,1.12232,3,0.027115,0,57,57,137,1,stimuli/objects/brownsugar.jpg,left,old,138,,,,,,,,
,,,,,,,,1,2020-12-15_14h09.35.967,premce3DEU_ses-02_part-02_label-phase2,2020.1.2,Win32,60,left,1.92152,3,0.478965,0,58,58,22,1,stimuli/objects/paperairplane.jpg,right,new,23,,,,,,,,
,,,,,,,,1,2020-12-15_14h09.35.967,premce3DEU_ses-02_part-02_label-phase2,2020.1.2,Win32,60,left,1.224485,1,0.24541,0,59,59,109,1,stimuli/objects/webcam.jpg,right,new,110,,,,,,,,
,,,,,,,,1,2020-12-15_14h09.35.967,premce3DEU_ses-02_part-02_label-phase2,2020.1.2,Win32,60,right,1.04438,3,0.231945,0,60,60,105,1,stimuli/objects/gps.jpg,left,old,106,,,,,,,,
,,,,,,,,1,2020-12-15_14h09.35.967,premce3DEU_ses-02_part-02_label-phase2,2020.1.2,Win32,60,right,0.94372,1,0.460315,0,61,61,61,1,stimuli/objects/jokercard.jpg,left,old,62,,,,,,,,
,,,,,,,,1,2020-12-15_14h09.35.967,premce3DEU_ses-02_part-02_label-phase2,2020.1.2,Win32,60,right,0.823075,3,0.16793,0,62,62,13,1,stimuli/objects/tower.jpg,right,new,14,,,,,,,,
,,,,,,,,1,2020-12-15_14h09.35.967,premce3DEU_ses-02_part-02_label-phase2,2020.1.2,Win32,60,right,1.69025,1,0.99695,0,63,63,112,1,stimuli/objects/tank.jpg,right,new,113,,,,,,,,
,,,,,,,,1,2020-12-15_14h09.35.967,premce3DEU_ses-02_part-02_label-phase2,2020.1.2,Win32,60,right,0.87587,3,0.24793,0,64,64,29,1,stimuli/objects/snowman.jpg,left,old,30,,,,,,,,
,,,,,,,,1,2020-12-15_14h09.35.967,premce3DEU_ses-02_part-02_label-phase2,2020.1.2,Win32,60,right,0.72265,1,0.16146,0,65,65,10,1,stimuli/objects/tablesaw.jpg,right,new,11,,,,,,,,
,,,,,,,,1,2020-12-15_14h09.35.967,premce3DEU_ses-02_part-02_label-phase2,2020.1.2,Win32,60,right,0.646795,3,0.79429,0,66,66,0,1,stimuli/objects/treestump.jpg,left,old,1,,,,,,,,
,,,,,,,,1,2020-12-15_14h09.35.967,premce3DEU_ses-02_part-02_label-phase2,2020.1.2,Win32,60,right,0.33615,3,0.08595,0,67,67,19,1,stimuli/objects/crosscountryski.jpg,right,new,20,,,,,,,,
,,,,,,,,1,2020-12-15_14h09.35.967,premce3DEU_ses-02_part-02_label-phase2,2020.1.2,Win32,60,right,1.921295,3,0.002675,0,68,68,43,1,stimuli/objects/ostrich.jpg,right,new,44,,,,,,,,
,,,,,,,,1,2020-12-15_14h09.35.967,premce3DEU_ses-02_part-02_label-phase2,2020.1.2,Win32,60,right,0.39531,3,0.24325,0,69,69,23,1,stimuli/objects/lollipop04.jpg,right,new,24,,,,,,,,
,,,,,,,,1,2020-12-15_14h09.35.967,premce3DEU_ses-02_part-02_label-phase2,2020.1.2,Win32,60,right,0.36988,4,0.767465,0,70,70,24,1,stimuli/objects/icecube02.jpg,right,new,25,,,,,,,,
,,,,,,,,1,2020-12-15_14h09.35.967,premce3DEU_ses-02_part-02_label-phase2,2020.1.2,Win32,60,right,0.666925,1,0.145295,0,71,71,2,1,stimuli/objects/table01.jpg,left,old,3,,,,,,,,
,,,,,,,,1,2020-12-15_14h09.35.967,premce3DEU_ses-02_part-02_label-phase2,2020.1.2,Win32,60,right,0.4132,3,0.00332,0,72,72,4,1,stimuli/objects/skipole.jpg,right,new,5,,,,,,,,
,,,,,,,,1,2020-12-15_14h09.35.967,premce3DEU_ses-02_part-02_label-phase2,2020.1.2,Win32,60,right,0.58075,1,0.00566,0,73,73,73,1,stimuli/objects/guitarcase.jpg,right,new,74,,,,,,,,
,,,,,,,,1,2020-12-15_14h09.35.967,premce3DEU_ses-02_part-02_label-phase2,2020.1.2,Win32,60,right,1.077015,3,0.742025,0,74,74,85,1,stimuli/objects/bridge.jpg,right,new,86,,,,,,,,
,,,,,,,,1,2020-12-15_14h09.35.967,premce3DEU_ses-02_part-02_label-phase2,2020.1.2,Win32,60,right,0.947395,1,0.418035,0,75,75,63,1,stimuli/objects/toasteroven.jpg,right,new,64,,,,,,,,
,,,,,,,,1,2020-12-15_14h09.35.967,premce3DEU_ses-02_part-02_label-phase2,2020.1.2,Win32,60,left,2.672855,1,0.401605,0,76,76,3,1,stimuli/objects/vacuumcleaner01.jpg,left,old,4,,,,,,,,
,,,,,,,,1,2020-12-15_14h09.35.967,premce3DEU_ses-02_part-02_label-phase2,2020.1.2,Win32,60,right,1.75723,3,0.734215,0,77,77,75,1,stimuli/objects/barn.jpg,left,old,76,,,,,,,,
,,,,,,,,1,2020-12-15_14h09.35.967,premce3DEU_ses-02_part-02_label-phase2,2020.1.2,Win32,60,right,2.11034,4,0.042215,0,78,78,35,1,stimuli/objects/skihelmet01.jpg,left,old,36,,,,,,,,
,,,,,,,,1,2020-12-15_14h09.35.967,premce3DEU_ses-02_part-02_label-phase2,2020.1.2,Win32,60,right,0.413935,4,0.00146,0,79,79,42,1,stimuli/objects/snowshoe.jpg,right,new,43,,,,,,,,
,,,,,,,,1,2020-12-15_14h09.35.967,premce3DEU_ses-02_part-02_label-phase2,2020.1.2,Win32,60,right,0.69379,4,0.10408,0,80,80,111,1,stimuli/objects/platypus.jpg,right,new,112,,,,,,,,
,,,,,,,,1,2020-12-15_14h09.35.967,premce3DEU_ses-02_part-02_label-phase2,2020.1.2,Win32,60,right,0.64948,4,0.045865,0,81,81,99,1,stimuli/objects/waterfountain02.jpg,left,old,100,,,,,,,,
,,,,,,,,1,2020-12-15_14h09.35.967,premce3DEU_ses-02_part-02_label-phase2,2020.1.2,Win32,60,left,1.262425,2,0.223095,0,82,82,153,1,stimuli/objects/coffeemachine.jpg,left,old,154,,,,,,,,
,,,,,,,,1,2020-12-15_14h09.35.967,premce3DEU_ses-02_part-02_label-phase2,2020.1.2,Win32,60,right,0.554695,3,0.141145,0,83,83,157,1,stimuli/objects/cookingpot.jpg,left,old,158,,,,,,,,
,,,,,,,,1,2020-12-15_14h09.35.967,premce3DEU_ses-02_part-02_label-phase2,2020.1.2,Win32,60,right,0.7292,1,0.183155,0,84,84,18,1,stimuli/objects/pingpongtable.jpg,right,new,19,,,,,,,,
,,,,,,,,1,2020-12-15_14h09.35.967,premce3DEU_ses-02_part-02_label-phase2,2020.1.2,Win32,60,left,2.39894,2,1.39477,0,85,85,131,1,stimuli/objects/missile.jpg,right,new,132,,,,,,,,
,,,,,,,,1,2020-12-15_14h09.35.967,premce3DEU_ses-02_part-02_label-phase2,2020.1.2,Win32,60,right,1.29623,1,0.5325,0,86,86,25,1,stimuli/objects/honeycomb.jpg,right,new,26,,,,,,,,
,,,,,,,,1,2020-12-15_14h09.35.967,premce3DEU_ses-02_part-02_label-phase2,2020.1.2,Win32,60,right,0.815565,3,0.561885,0,87,87,122,1,stimuli/objects/soccerball.jpg,left,old,123,,,,,,,,
,,,,,,,,1,2020-12-15_14h09.35.967,premce3DEU_ses-02_part-02_label-phase2,2020.1.2,Win32,60,right,0.846435,3,0.302225,0,88,88,27,1,stimuli/objects/coffeemaker.jpg,left,old,28,,,,,,,,
,,,,,,,,1,2020-12-15_14h09.35.967,premce3DEU_ses-02_part-02_label-phase2,2020.1.2,Win32,60,right,0.72042,1,0.092145,0,89,89,102,1,stimuli/objects/forklift.jpg,left,old,103,,,,,,,,
,,,,,,,,1,2020-12-15_14h09.35.967,premce3DEU_ses-02_part-02_label-phase2,2020.1.2,Win32,60,right,0.39574,3,0.001515,0,90,90,92,1,stimuli/objects/armchair02.jpg,right,new,93,,,,,,,,
,,,,,,,,1,2020-12-15_14h09.35.967,premce3DEU_ses-02_part-02_label-phase2,2020.1.2,Win32,60,right,0.61557,1,0.00246,0,91,91,134,1,stimuli/objects/nunchuk.jpg,right,new,135,,,,,,,,
,,,,,,,,1,2020-12-15_14h09.35.967,premce3DEU_ses-02_part-02_label-phase2,2020.1.2,Win32,60,right,0.458425,3,0.145525,0,92,92,9,1,stimuli/objects/rose.jpg,right,new,10,,,,,,,,
,,,,,,,,1,2020-12-15_14h09.35.967,premce3DEU_ses-02_part-02_label-phase2,2020.1.2,Win32,60,right,0.69257,1,0.00159,0,93,93,5,1,stimuli/objects/horse.jpg,left,old,6,,,,,,,,
,,,,,,,,1,2020-12-15_14h09.35.967,premce3DEU_ses-02_part-02_label-phase2,2020.1.2,Win32,60,left,1.060745,2,0.47106,0,94,94,52,1,stimuli/objects/turkey.jpg,right,new,53,,,,,,,,
,,,,,,,,1,2020-12-15_14h09.35.967,premce3DEU_ses-02_part-02_label-phase2,2020.1.2,Win32,60,right,0.73519,2,0.26039,0,95,95,143,1,stimuli/objects/faucet.jpg,right,new,144,,,,,,,,
,,,,,,,,1,2020-12-15_14h09.35.967,premce3DEU_ses-02_part-02_label-phase2,2020.1.2,Win32,60,right,0.526775,2,0.00278,0,96,96,46,1,stimuli/objects/entrancegate.jpg,right,new,47,,,,,,,,
,,,,,,,,1,2020-12-15_14h09.35.967,premce3DEU_ses-02_part-02_label-phase2,2020.1.2,Win32,60,right,0.41053,1,0.005575,0,97,97,152,1,stimuli/objects/urinal.jpg,left,old,153,,,,,,,,
,,,,,,,,1,2020-12-15_14h09.35.967,premce3DEU_ses-02_part-02_label-phase2,2020.1.2,Win32,60,right,0.99426,3,0.265075,0,98,98,93,1,stimuli/objects/discoball.jpg,right,new,94,,,,,,,,
,,,,,,,,1,2020-12-15_14h09.35.967,premce3DEU_ses-02_part-02_label-phase2,2020.1.2,Win32,60,right,0.66255,2,0.29979,0,99,99,37,1,stimuli/objects/golfball.jpg,left,old,38,,,,,,,,
,,,,,,,,1,2020-12-15_14h09.35.967,premce3DEU_ses-02_part-02_label-phase2,2020.1.2,Win32,60,right,0.511515,1,0.326825,0,100,100,149,1,stimuli/objects/dolly01.jpg,right,new,150,,,,,,,,
,,,,,,,,1,2020-12-15_14h09.35.967,premce3DEU_ses-02_part-02_label-phase2,2020.1.2,Win32,60,right,0.4117,4,0.048955,0,101,101,146,1,stimuli/objects/ant.jpg,right,new,147,,,,,,,,
,,,,,,,,1,2020-12-15_14h09.35.967,premce3DEU_ses-02_part-02_label-phase2,2020.1.2,Win32,60,left,1.298225,3,0.390885,0,102,102,53,1,stimuli/objects/honeybee.jpg,right,new,54,,,,,,,,
,,,,,,,,1,2020-12-15_14h09.35.967,premce3DEU_ses-02_part-02_label-phase2,2020.1.2,Win32,60,left,1.00705,2,0.551815,0,103,103,125,1,stimuli/objects/freezer02.jpg,right,new,126,,,,,,,,
,,,,,,,,1,2020-12-15_14h09.35.967,premce3DEU_ses-02_part-02_label-phase2,2020.1.2,Win32,60,right,0.50642,1,0.128355,0,104,104,26,1,stimuli/objects/sledgehammer.jpg,right,new,27,,,,,,,,
,,,,,,,,1,2020-12-15_14h09.35.967,premce3DEU_ses-02_part-02_label-phase2,2020.1.2,Win32,60,right,0.87569,3,0.56105,0,105,105,79,1,stimuli/objects/callbell.jpg,left,old,80,,,,,,,,
,,,,,,,,1,2020-12-15_14h09.35.967,premce3DEU_ses-02_part-02_label-phase2,2020.1.2,Win32,60,right,0.88192,1,0.21695,0,106,106,94,1,stimuli/objects/dandelion.jpg,right,new,95,,,,,,,,
,,,,,,,,1,2020-12-15_14h09.35.967,premce3DEU_ses-02_part-02_label-phase2,2020.1.2,Win32,60,right,0.679385,1,0.00144,0,107,107,151,1,stimuli/objects/contactlens.jpg,left,old,152,,,,,,,,
,,,,,,,,1,2020-12-15_14h09.35.967,premce3DEU_ses-02_part-02_label-phase2,2020.1.2,Win32,60,right,0.42484,3,0.21884,0,108,108,119,1,stimuli/objects/kite.jpg,right,new,120,,,,,,,,
,,,,,,,,1,2020-12-15_14h09.35.967,premce3DEU_ses-02_part-02_label-phase2,2020.1.2,Win32,60,left,1.564175,3,0.722635,0,109,109,32,1,stimuli/objects/moth.jpg,right,new,33,,,,,,,,
,,,,,,,,1,2020-12-15_14h09.35.967,premce3DEU_ses-02_part-02_label-phase2,2020.1.2,Win32,60,right,0.84749,1,0.001895,0,110,110,84,1,stimuli/objects/winniethepooh.jpg,left,old,85,,,,,,,,
,,,,,,,,1,2020-12-15_14h09.35.967,premce3DEU_ses-02_part-02_label-phase2,2020.1.2,Win32,60,right,1.87535,4,0.18316,0,111,111,50,1,stimuli/objects/lionstatue.jpg,left,old,51,,,,,,,,
,,,,,,,,1,2020-12-15_14h09.35.967,premce3DEU_ses-02_part-02_label-phase2,2020.1.2,Win32,60,right,0.702065,3,0.37303,0,112,112,6,1,stimuli/objects/pumpkin.jpg,left,old,7,,,,,,,,
,,,,,,,,1,2020-12-15_14h09.35.967,premce3DEU_ses-02_part-02_label-phase2,2020.1.2,Win32,60,right,0.99384,1,0.182755,0,113,113,121,1,stimuli/objects/riverotter.jpg,right,new,122,,,,,,,,
,,,,,,,,1,2020-12-15_14h09.35.967,premce3DEU_ses-02_part-02_label-phase2,2020.1.2,Win32,60,left,0.64352,3,0.370145,0,114,114,76,1,stimuli/objects/morningstar.jpg,right,new,77,,,,,,,,
,,,,,,,,1,2020-12-15_14h09.35.967,premce3DEU_ses-02_part-02_label-phase2,2020.1.2,Win32,60,right,1.615665,1,0.00482,0,115,115,47,1,stimuli/objects/stepladder.jpg,left,old,48,,,,,,,,
,,,,,,,,1,2020-12-15_14h09.35.967,premce3DEU_ses-02_part-02_label-phase2,2020.1.2,Win32,60,right,1.46322,1,0.00157,0,116,116,159,1,stimuli/objects/stairs.jpg,right,new,160,,,,,,,,
,,,,,,,,1,2020-12-15_14h09.35.967,premce3DEU_ses-02_part-02_label-phase2,2020.1.2,Win32,60,right,0.5954,3,0.2253,0,117,117,15,1,stimuli/objects/dromedary.jpg,left,old,16,,,,,,,,
,,,,,,,,1,2020-12-15_14h09.35.967,premce3DEU_ses-02_part-02_label-phase2,2020.1.2,Win32,60,right,0.34601,2,0.252535,0,118,118,68,1,stimuli/objects/cuttlefish.jpg,left,old,69,,,,,,,,
,,,,,,,,1,2020-12-15_14h09.35.967,premce3DEU_ses-02_part-02_label-phase2,2020.1.2,Win32,60,right,0.492365,3,0.30788,0,119,119,95,1,stimuli/objects/scalpel.jpg,left,old,96,,,,,,,,
,,,,,,,,1,2020-12-15_14h09.35.967,premce3DEU_ses-02_part-02_label-phase2,2020.1.2,Win32,60,right,0.5588,4,0.00165,0,120,120,12,1,stimuli/objects/pigeon.jpg,right,new,13,,,,,,,,
,,,,,,,,1,2020-12-15_14h09.35.967,premce3DEU_ses-02_part-02_label-phase2,2020.1.2,Win32,60,left,0.51958,1,0.079165,0,121,121,138,1,stimuli/objects/cow.jpg,right,new,139,,,,,,,,
,,,,,,,,1,2020-12-15_14h09.35.967,premce3DEU_ses-02_part-02_label-phase2,2020.1.2,Win32,60,right,0.972305,1,0.40621,0,122,122,39,1,stimuli/objects/electrictoothbrush01c.jpg,right,new,40,,,,,,,,
,,,,,,,,1,2020-12-15_14h09.35.967,premce3DEU_ses-02_part-02_label-phase2,2020.1.2,Win32,60,right,0.67071,2,0.279895,0,123,123,113,1,stimuli/objects/shoppingcart.jpg,right,new,114,,,,,,,,
,,,,,,,,1,2020-12-15_14h09.35.967,premce3DEU_ses-02_part-02_label-phase2,2020.1.2,Win32,60,right,0.53796,1,0.516715,0,124,124,90,1,stimuli/objects/trailer.jpg,right,new,91,,,,,,,,
,,,,,,,,1,2020-12-15_14h09.35.967,premce3DEU_ses-02_part-02_label-phase2,2020.1.2,Win32,60,right,1.216715,3,0.21423,0,125,125,147,1,stimuli/objects/toiletbrush.jpg,right,new,148,,,,,,,,
,,,,,,,,1,2020-12-15_14h09.35.967,premce3DEU_ses-02_part-02_label-phase2,2020.1.2,Win32,60,right,3.21354,2,1.180185,0,126,126,65,1,stimuli/objects/weddingcake.jpg,left,old,66,,,,,,,,
,,,,,,,,1,2020-12-15_14h09.35.967,premce3DEU_ses-02_part-02_label-phase2,2020.1.2,Win32,60,right,0.833015,1,0.338475,0,127,127,77,1,stimuli/objects/fishskeleton.jpg,left,old,78,,,,,,,,
,,,,,,,,1,2020-12-15_14h09.35.967,premce3DEU_ses-02_part-02_label-phase2,2020.1.2,Win32,60,right,0.63844,3,0.289695,0,128,128,87,1,stimuli/objects/filingcabinet.jpg,left,old,88,,,,,,,,
,,,,,,,,1,2020-12-15_14h09.35.967,premce3DEU_ses-02_part-02_label-phase2,2020.1.2,Win32,60,left,1.20184,4,0.339395,0,129,129,7,1,stimuli/objects/redonion.jpg,left,old,8,,,,,,,,
,,,,,,,,1,2020-12-15_14h09.35.967,premce3DEU_ses-02_part-02_label-phase2,2020.1.2,Win32,60,right,0.626845,3,0.22854,0,130,130,80,1,stimuli/objects/tree.jpg,right,new,81,,,,,,,,
,,,,,,,,1,2020-12-15_14h09.35.967,premce3DEU_ses-02_part-02_label-phase2,2020.1.2,Win32,60,right,0.613865,1,0.17119,0,131,131,8,1,stimuli/objects/englishcucumber.jpg,right,new,9,,,,,,,,
,,,,,,,,1,2020-12-15_14h09.35.967,premce3DEU_ses-02_part-02_label-phase2,2020.1.2,Win32,60,right,0.842405,3,0.226705,0,132,132,89,1,stimuli/objects/bowlingball.jpg,right,new,90,,,,,,,,
,,,,,,,,1,2020-12-15_14h09.35.967,premce3DEU_ses-02_part-02_label-phase2,2020.1.2,Win32,60,right,0.605095,1,0.178355,0,133,133,74,1,stimuli/objects/windturbine.jpg,left,old,75,,,,,,,,
,,,,,,,,1,2020-12-15_14h09.35.967,premce3DEU_ses-02_part-02_label-phase2,2020.1.2,Win32,60,right,0.61105,4,0.81887,0,134,134,145,1,stimuli/objects/church.jpg,right,new,146,,,,,,,,
,,,,,,,,1,2020-12-15_14h09.35.967,premce3DEU_ses-02_part-02_label-phase2,2020.1.2,Win32,60,left,0.374295,1,0.280605,0,135,135,124,1,stimuli/objects/handheldtelescope.jpg,left,old,125,,,,,,,,
,,,,,,,,1,2020-12-15_14h09.35.967,premce3DEU_ses-02_part-02_label-phase2,2020.1.2,Win32,60,right,0.564735,3,0.22688,0,136,136,36,1,stimuli/objects/christmaslights.jpg,left,old,37,,,,,,,,
,,,,,,,,1,2020-12-15_14h09.35.967,premce3DEU_ses-02_part-02_label-phase2,2020.1.2,Win32,60,right,1.06672,1,0.00192,0,137,137,69,1,stimuli/objects/granolabar01.jpg,left,old,70,,,,,,,,
,,,,,,,,1,2020-12-15_14h09.35.967,premce3DEU_ses-02_part-02_label-phase2,2020.1.2,Win32,60,left,1.008615,1,0.55957,0,138,138,82,1,stimuli/objects/crown.jpg,left,old,83,,,,,,,,
,,,,,,,,1,2020-12-15_14h09.35.967,premce3DEU_ses-02_part-02_label-phase2,2020.1.2,Win32,60,right,1.465185,3,0.554785,0,139,139,72,1,stimuli/objects/totempole.jpg,right,new,73,,,,,,,,
,,,,,,,,1,2020-12-15_14h09.35.967,premce3DEU_ses-02_part-02_label-phase2,2020.1.2,Win32,60,left,1.621305,1,0.32638,0,140,140,91,1,stimuli/objects/eyepatch.jpg,left,old,92,,,,,,,,
,,,,,,,,1,2020-12-15_14h09.35.967,premce3DEU_ses-02_part-02_label-phase2,2020.1.2,Win32,60,right,0.832665,3,0.46875,0,141,141,140,1,stimuli/objects/exitsign.jpg,left,old,141,,,,,,,,
,,,,,,,,1,2020-12-15_14h09.35.967,premce3DEU_ses-02_part-02_label-phase2,2020.1.2,Win32,60,right,1.208205,1,0.09249,0,142,142,16,1,stimuli/objects/cactus.jpg,left,old,17,,,,,,,,
,,,,,,,,1,2020-12-15_14h09.35.967,premce3DEU_ses-02_part-02_label-phase2,2020.1.2,Win32,60,right,1.095075,2,0.32599,0,143,143,115,1,stimuli/objects/lantern03.jpg,left,old,116,,,,,,,,
,,,,,,,,1,2020-12-15_14h09.35.967,premce3DEU_ses-02_part-02_label-phase2,2020.1.2,Win32,60,right,1.33128,3,0.074915,0,144,144,158,1,stimuli/objects/watercooler.jpg,right,new,159,,,,,,,,
,,,,,,,,1,2020-12-15_14h09.35.967,premce3DEU_ses-02_part-02_label-phase2,2020.1.2,Win32,60,left,1.87754,3,0.426965,0,145,145,100,1,stimuli/objects/macaroni01.jpg,right,new,101,,,,,,,,
,,,,,,,,1,2020-12-15_14h09.35.967,premce3DEU_ses-02_part-02_label-phase2,2020.1.2,Win32,60,right,0.879585,3,0.6655,0,146,146,64,1,stimuli/objects/dalmatian.jpg,left,old,65,,,,,,,,
,,,,,,,,1,2020-12-15_14h09.35.967,premce3DEU_ses-02_part-02_label-phase2,2020.1.2,Win32,60,right,1.11634,1,0.287505,0,147,147,59,1,stimuli/objects/birdhouse.jpg,right,new,60,,,,,,,,
,,,,,,,,1,2020-12-15_14h09.35.967,premce3DEU_ses-02_part-02_label-phase2,2020.1.2,Win32,60,right,0.76447,2,0.167935,0,148,148,114,1,stimuli/objects/star.jpg,left,old,115,,,,,,,,
,,,,,,,,1,2020-12-15_14h09.35.967,premce3DEU_ses-02_part-02_label-phase2,2020.1.2,Win32,60,right,0.610705,2,0.32765,0,149,149,96,1,stimuli/objects/awning.jpg,right,new,97,,,,,,,,
,,,,,,,,1,2020-12-15_14h09.35.967,premce3DEU_ses-02_part-02_label-phase2,2020.1.2,Win32,60,right,0.6015,3,0.886675,0,150,150,81,1,stimuli/objects/lighthouse.jpg,right,new,82,,,,,,,,
,,,,,,,,1,2020-12-15_14h09.35.967,premce3DEU_ses-02_part-02_label-phase2,2020.1.2,Win32,60,right,0.63019,1,0.063185,0,151,151,106,1,stimuli/objects/helicopter.jpg,right,new,107,,,,,,,,
,,,,,,,,1,2020-12-15_14h09.35.967,premce3DEU_ses-02_part-02_label-phase2,2020.1.2,Win32,60,right,0.660455,2,0.29084,0,152,152,154,1,stimuli/objects/curtain.jpg,right,new,155,,,,,,,,
,,,,,,,,1,2020-12-15_14h09.35.967,premce3DEU_ses-02_part-02_label-phase2,2020.1.2,Win32,60,right,0.34961,3,0.158055,0,153,153,144,1,stimuli/objects/trombone.jpg,left,old,145,,,,,,,,
,,,,,,,,1,2020-12-15_14h09.35.967,premce3DEU_ses-02_part-02_label-phase2,2020.1.2,Win32,60,right,0.699395,1,0.001515,0,154,154,40,1,stimuli/objects/cremebrulee.jpg,left,old,41,,,,,,,,
,,,,,,,,1,2020-12-15_14h09.35.967,premce3DEU_ses-02_part-02_label-phase2,2020.1.2,Win32,60,right,1.010815,3,0.297815,0,155,155,101,1,stimuli/objects/apron.jpg,left,old,102,,,,,,,,
,,,,,,,,1,2020-12-15_14h09.35.967,premce3DEU_ses-02_part-02_label-phase2,2020.1.2,Win32,60,right,2.304955,1,0.87448,0,156,156,54,1,stimuli/objects/toynutcracker.jpg,right,new,55,,,,,,,,
,,,,,,,,1,2020-12-15_14h09.35.967,premce3DEU_ses-02_part-02_label-phase2,2020.1.2,Win32,60,right,1.16539,2,0.17194,0,157,157,48,1,stimuli/objects/bowlingpin.jpg,left,old,49,,,,,,,,
,,,,,,,,1,2020-12-15_14h09.35.967,premce3DEU_ses-02_part-02_label-phase2,2020.1.2,Win32,60,right,0.557495,4,0.10064,0,158,158,66,1,stimuli/objects/shipinabottle.jpg,right,new,67,,,,,,,,
,,,,,,,,1,2020-12-15_14h09.35.967,premce3DEU_ses-02_part-02_label-phase2,2020.1.2,Win32,60,right,1.978475,1,0.6604,0,159,159,117,1,stimuli/objects/bull.jpg,right,new,118,,,,,,,,
,,,,,,,,1,2020-12-15_14h09.35.967,premce3DEU_ses-02_part-02_label-phase2,2020.1.2,Win32,60,,,,,,,,,,,,,,space,3.0492,0,1,1,0,1,ImagesforRecog1.csv
