Instr_resp_2.keys,Instr_resp_2.rt,warmup_resp.keys,warmup_resp.corr,warmup_resp.rt,myownaccuracy,respcorrs,myownaccuracyCORR,trials.thisRepN,trials.thisTrialN,trials.thisN,trials.thisIndex,trials.ran,first_butterfly,second_butterfly,Cue,left_flower,top_flower,bottom_flower,right_flower,corr_ans,obj_file,trial_cond,switch_cond,cuedButter,trial_type,participant,date,expName,psychopyVersion,OS,frameRate,Instr_resp.keys,Instr_resp.rt,taskGoresp.keys,taskGoresp.rt,task_resp_3.keys,task_resp_3.corr,task_resp_3.rt,task_loop.thisRepN,task_loop.thisTrialN,task_loop.thisN,task_loop.thisIndex,task_loop.ran,list_loop.thisRepN,list_loop.thisTrialN,list_loop.thisN,list_loop.thisIndex,list_loop.ran,list,key_resp.keys,key_resp.rt
space,127.33878,left,0,0.69177,0,[],0,0,0,0,12,1,stimuli/white_butterfly.png,stimuli/grey_butterfly.png,1,stimuli/yellow_flower.png,stimuli/red_flower.png,stimuli/blue_flower.png,stimuli/green_flower.png,down,stimuli/objects/toolbox02.jpg,1,99,stimuli/white_butterfly.png,1,2,2020-12-15_15h17.39.111,premce3DEU_ses-02_part-01_label-phase1,2020.1.2,Win32,60,,,,,,,,,,,,,,,,,,,,
,,right,0,0.806705,0,[0],0,0,1,1,3,1,stimuli/white_butterfly.png,stimuli/grey_butterfly.png,2,stimuli/green_flower.png,stimuli/blue_flower.png,stimuli/red_flower.png,stimuli/yellow_flower.png,left,stimuli/objects/cigar.jpg,0,99,stimuli/grey_butterfly.png,0,2,2020-12-15_15h17.39.111,premce3DEU_ses-02_part-01_label-phase1,2020.1.2,Win32,60,,,,,,,,,,,,,,,,,,,,
,,up,0,1.300895,0,[0],0,0,2,2,7,1,stimuli/grey_butterfly.png,stimuli/white_butterfly.png,2,stimuli/red_flower.png,stimuli/green_flower.png,stimuli/blue_flower.png,stimuli/yellow_flower.png,down,stimuli/objects/firehydrant.jpg,1,99,stimuli/white_butterfly.png,0,2,2020-12-15_15h17.39.111,premce3DEU_ses-02_part-01_label-phase1,2020.1.2,Win32,60,,,,,,,,,,,,,,,,,,,,
,,left,0,0.707195,0,"[0,0]",0,0,3,3,18,1,stimuli/grey_butterfly.png,stimuli/white_butterfly.png,2,stimuli/blue_flower.png,stimuli/yellow_flower.png,stimuli/green_flower.png,stimuli/red_flower.png,up,stimuli/objects/armadillo.jpg,0,99,stimuli/white_butterfly.png,1,2,2020-12-15_15h17.39.111,premce3DEU_ses-02_part-01_label-phase1,2020.1.2,Win32,60,,,,,,,,,,,,,,,,,,,,
,,right,0,1.38265,0,"[0,0]",0,0,4,4,14,1,stimuli/grey_butterfly.png,stimuli/white_butterfly.png,1,stimuli/blue_flower.png,stimuli/red_flower.png,stimuli/yellow_flower.png,stimuli/green_flower.png,up,stimuli/objects/shed02.jpg,1,99,stimuli/grey_butterfly.png,1,2,2020-12-15_15h17.39.111,premce3DEU_ses-02_part-01_label-phase1,2020.1.2,Win32,60,,,,,,,,,,,,,,,,,,,,
,,right,1,0.705845,1,"[0,0,0]",1,0,5,5,20,1,stimuli/white_butterfly.png,stimuli/grey_butterfly.png,2,stimuli/green_flower.png,stimuli/blue_flower.png,stimuli/yellow_flower.png,stimuli/red_flower.png,right,stimuli/objects/toucan.jpg,1,99,stimuli/grey_butterfly.png,1,2,2020-12-15_15h17.39.111,premce3DEU_ses-02_part-01_label-phase1,2020.1.2,Win32,60,,,,,,,,,,,,,,,,,,,,
,,down,0,0.937415,0,"[0,0,0,1]",0,0,6,6,9,1,stimuli/white_butterfly.png,stimuli/grey_butterfly.png,1,stimuli/blue_flower.png,stimuli/red_flower.png,stimuli/yellow_flower.png,stimuli/green_flower.png,left,stimuli/objects/skunk.jpg,1,99,stimuli/white_butterfly.png,0,2,2020-12-15_15h17.39.111,premce3DEU_ses-02_part-01_label-phase1,2020.1.2,Win32,60,,,,,,,,,,,,,,,,,,,,
,,up,1,1.841375,1,"[0,0,0,1,0]",1,0,7,7,19,1,stimuli/grey_butterfly.png,stimuli/white_butterfly.png,2,stimuli/yellow_flower.png,stimuli/blue_flower.png,stimuli/red_flower.png,stimuli/green_flower.png,up,stimuli/objects/motorcycle.jpg,1,99,stimuli/white_butterfly.png,1,2,2020-12-15_15h17.39.111,premce3DEU_ses-02_part-01_label-phase1,2020.1.2,Win32,60,,,,,,,,,,,,,,,,,,,,
,,left,0,0.668035,0,"[0,0,0,1,0,1]",0,0,8,8,6,1,stimuli/grey_butterfly.png,stimuli/white_butterfly.png,1,stimuli/green_flower.png,stimuli/yellow_flower.png,stimuli/blue_flower.png,stimuli/red_flower.png,right,stimuli/objects/flipflop01b.jpg,1,99,stimuli/grey_butterfly.png,0,2,2020-12-15_15h17.39.111,premce3DEU_ses-02_part-01_label-phase1,2020.1.2,Win32,60,,,,,,,,,,,,,,,,,,,,
,,,0,,0,"[0,0,0,1,0,1,0]",0,0,9,9,2,1,stimuli/white_butterfly.png,stimuli/grey_butterfly.png,2,stimuli/blue_flower.png,stimuli/red_flower.png,stimuli/yellow_flower.png,stimuli/green_flower.png,up,stimuli/objects/corn02.jpg,1,99,stimuli/grey_butterfly.png,0,2,2020-12-15_15h17.39.111,premce3DEU_ses-02_part-01_label-phase1,2020.1.2,Win32,60,,,,,,,,,,,,,,,,,,,,
,,down,1,0.535065,1,"[0,0,0,1,0,1,0,0]",1,0,10,10,5,1,stimuli/white_butterfly.png,stimuli/grey_butterfly.png,1,stimuli/green_flower.png,stimuli/red_flower.png,stimuli/blue_flower.png,stimuli/yellow_flower.png,down,stimuli/objects/birdfeeder.jpg,1,99,stimuli/white_butterfly.png,0,2,2020-12-15_15h17.39.111,premce3DEU_ses-02_part-01_label-phase1,2020.1.2,Win32,60,,,,,,,,,,,,,,,,,,,,
,,left,0,0.64654,0,"[0,0,0,1,0,1,0,0,1]",1,0,11,11,13,1,stimuli/grey_butterfly.png,stimuli/white_butterfly.png,2,stimuli/blue_flower.png,stimuli/red_flower.png,stimuli/yellow_flower.png,stimuli/green_flower.png,up,stimuli/objects/payphone.jpg,0,99,stimuli/white_butterfly.png,1,2,2020-12-15_15h17.39.111,premce3DEU_ses-02_part-01_label-phase1,2020.1.2,Win32,60,,,,,,,,,,,,,,,,,,,,
,,right,0,0.686855,0,"[0,0,0,1,0,1,0,0,1]",0,0,12,12,1,1,stimuli/white_butterfly.png,stimuli/grey_butterfly.png,2,stimuli/yellow_flower.png,stimuli/red_flower.png,stimuli/blue_flower.png,stimuli/green_flower.png,up,stimuli/objects/marble.jpg,1,99,stimuli/grey_butterfly.png,0,2,2020-12-15_15h17.39.111,premce3DEU_ses-02_part-01_label-phase1,2020.1.2,Win32,60,,,,,,,,,,,,,,,,,,,,
,,down,0,1.11111,0,"[0,0,0,1,0,1,0,0,1,0]",0,0,13,13,10,1,stimuli/white_butterfly.png,stimuli/grey_butterfly.png,1,stimuli/green_flower.png,stimuli/yellow_flower.png,stimuli/blue_flower.png,stimuli/red_flower.png,left,stimuli/objects/anchor.jpg,0,99,stimuli/white_butterfly.png,0,2,2020-12-15_15h17.39.111,premce3DEU_ses-02_part-01_label-phase1,2020.1.2,Win32,60,,,,,,,,,,,,,,,,,,,,
,,right,0,2.10657,0,"[0,0,0,1,0,1,0,0,1,0]",0,0,14,14,11,1,stimuli/white_butterfly.png,stimuli/grey_butterfly.png,2,stimuli/blue_flower.png,stimuli/green_flower.png,stimuli/yellow_flower.png,stimuli/red_flower.png,left,stimuli/objects/bookshelf.jpg,0,99,stimuli/grey_butterfly.png,1,2,2020-12-15_15h17.39.111,premce3DEU_ses-02_part-01_label-phase1,2020.1.2,Win32,60,,,,,,,,,,,,,,,,,,,,
,,up,0,1.40441,0,"[0,0,0,1,0,1,0,0,1,0]",0,0,15,15,8,1,stimuli/white_butterfly.png,stimuli/grey_butterfly.png,2,stimuli/red_flower.png,stimuli/blue_flower.png,stimuli/green_flower.png,stimuli/yellow_flower.png,left,stimuli/objects/shelf.jpg,1,99,stimuli/grey_butterfly.png,0,2,2020-12-15_15h17.39.111,premce3DEU_ses-02_part-01_label-phase1,2020.1.2,Win32,60,,,,,,,,,,,,,,,,,,,,
,,right,1,0.535765,1,"[0,0,0,1,0,1,0,0,1,0,0]",1,0,16,16,16,1,stimuli/grey_butterfly.png,stimuli/white_butterfly.png,2,stimuli/red_flower.png,stimuli/yellow_flower.png,stimuli/green_flower.png,stimuli/blue_flower.png,right,stimuli/objects/foosballtable.jpg,1,99,stimuli/white_butterfly.png,1,2,2020-12-15_15h17.39.111,premce3DEU_ses-02_part-01_label-phase1,2020.1.2,Win32,60,,,,,,,,,,,,,,,,,,,,
,,right,1,1.227495,1,"[0,0,0,1,0,1,0,0,1,0,0,1]",1,0,17,17,0,1,stimuli/grey_butterfly.png,stimuli/white_butterfly.png,2,stimuli/green_flower.png,stimuli/red_flower.png,stimuli/yellow_flower.png,stimuli/blue_flower.png,right,stimuli/objects/tennisracket.jpg,1,99,stimuli/white_butterfly.png,0,2,2020-12-15_15h17.39.111,premce3DEU_ses-02_part-01_label-phase1,2020.1.2,Win32,60,,,,,,,,,,,,,,,,,,,,
,,left,1,1.59228,1,"[0,0,0,1,0,1,0,0,1,0,0,1,1]",1,0,18,18,15,1,stimuli/grey_butterfly.png,stimuli/white_butterfly.png,1,stimuli/red_flower.png,stimuli/yellow_flower.png,stimuli/blue_flower.png,stimuli/green_flower.png,left,stimuli/objects/wheat.jpg,1,99,stimuli/grey_butterfly.png,1,2,2020-12-15_15h17.39.111,premce3DEU_ses-02_part-01_label-phase1,2020.1.2,Win32,60,,,,,,,,,,,,,,,,,,,,
,,left,0,1.478915,0,"[0,0,0,1,0,1,0,0,1,0,0,1,1,1]",1,0,19,19,17,1,stimuli/grey_butterfly.png,stimuli/white_butterfly.png,1,stimuli/red_flower.png,stimuli/green_flower.png,stimuli/yellow_flower.png,stimuli/blue_flower.png,down,stimuli/objects/butterfly4.jpg,0,99,stimuli/grey_butterfly.png,1,2,2020-12-15_15h17.39.111,premce3DEU_ses-02_part-01_label-phase1,2020.1.2,Win32,60,,,,,,,,,,,,,,,,,,,,
,,right,1,1.43778,1,"[0,0,0,1,0,1,0,0,1,0,0,1,1,1]",1,0,20,20,4,1,stimuli/white_butterfly.png,stimuli/grey_butterfly.png,1,stimuli/green_flower.png,stimuli/red_flower.png,stimuli/yellow_flower.png,stimuli/blue_flower.png,right,stimuli/objects/tire.jpg,1,99,stimuli/white_butterfly.png,0,2,2020-12-15_15h17.39.111,premce3DEU_ses-02_part-01_label-phase1,2020.1.2,Win32,60,,,,,,,,,,,,,,,,,,,,
,,,,,0,"[0,0,0,1,0,1,0,0,1,0,0,1,1,1,1]",0,,,,,,stimuli/white_butterfly.png,stimuli/grey_butterfly.png,1,stimuli/blue_flower.png,stimuli/red_flower.png,stimuli/green_flower.png,stimuli/yellow_flower.png,left,stimuli/objects/handbrush02.jpg,1,2,stimuli/white_butterfly.png,0,2,2020-12-15_15h17.39.111,premce3DEU_ses-02_part-01_label-phase1,2020.1.2,Win32,60,space,18.41164,space,0.951675,right,0,0.89249,0,0,0,0,1,,,,,,,,
,,,,,0,"[0,0,0,1,0,1,0,0,1,0,0,1,1,1,1,0]",0,,,,,,stimuli/grey_butterfly.png,stimuli/white_butterfly.png,2,stimuli/yellow_flower.png,stimuli/green_flower.png,stimuli/blue_flower.png,stimuli/red_flower.png,up,stimuli/objects/fishskeleton.jpg,0,2,stimuli/white_butterfly.png,0,2,2020-12-15_15h17.39.111,premce3DEU_ses-02_part-01_label-phase1,2020.1.2,Win32,60,,,,,down,0,0.740035,0,1,1,1,1,,,,,,,,
,,,,,0,"[0,0,0,1,0,1,0,0,1,0,0,1,1,1,1,0]",0,,,,,,stimuli/white_butterfly.png,stimuli/grey_butterfly.png,1,stimuli/green_flower.png,stimuli/blue_flower.png,stimuli/red_flower.png,stimuli/yellow_flower.png,down,stimuli/objects/brownsugar.jpg,0,2,stimuli/white_butterfly.png,0,2,2020-12-15_15h17.39.111,premce3DEU_ses-02_part-01_label-phase1,2020.1.2,Win32,60,,,,,left,0,0.87918,0,2,2,2,1,,,,,,,,
,,,,,0,"[0,0,0,1,0,1,0,0,1,0,0,1,1,1,1,0]",0,,,,,,stimuli/grey_butterfly.png,stimuli/white_butterfly.png,1,stimuli/yellow_flower.png,stimuli/green_flower.png,stimuli/red_flower.png,stimuli/blue_flower.png,left,stimuli/objects/gong.jpg,0,2,stimuli/grey_butterfly.png,0,2,2020-12-15_15h17.39.111,premce3DEU_ses-02_part-01_label-phase1,2020.1.2,Win32,60,,,,,right,0,1.135485,0,3,3,3,1,,,,,,,,
,,,,,0,"[0,0,0,1,0,1,0,0,1,0,0,1,1,1,1,0]",0,,,,,,stimuli/grey_butterfly.png,stimuli/white_butterfly.png,2,stimuli/blue_flower.png,stimuli/red_flower.png,stimuli/yellow_flower.png,stimuli/green_flower.png,left,stimuli/objects/treadmill.jpg,1,2,stimuli/white_butterfly.png,0,2,2020-12-15_15h17.39.111,premce3DEU_ses-02_part-01_label-phase1,2020.1.2,Win32,60,,,,,right,0,1.00008,0,4,4,4,1,,,,,,,,
,,,,,1,"[0,0,0,1,0,1,0,0,1,0,0,1,1,1,1,0,0]",1,,,,,,stimuli/white_butterfly.png,stimuli/grey_butterfly.png,2,stimuli/yellow_flower.png,stimuli/green_flower.png,stimuli/red_flower.png,stimuli/blue_flower.png,down,stimuli/objects/shower.jpg,1,2,stimuli/grey_butterfly.png,0,2,2020-12-15_15h17.39.111,premce3DEU_ses-02_part-01_label-phase1,2020.1.2,Win32,60,,,,,down,1,1.709635,0,5,5,5,1,,,,,,,,
,,,,,1,"[0,0,0,1,0,1,0,0,1,0,0,1,1,1,1,0,0,1]",1,,,,,,stimuli/white_butterfly.png,stimuli/grey_butterfly.png,1,stimuli/green_flower.png,stimuli/yellow_flower.png,stimuli/red_flower.png,stimuli/blue_flower.png,right,stimuli/objects/skateboard.jpg,1,2,stimuli/white_butterfly.png,0,2,2020-12-15_15h17.39.111,premce3DEU_ses-02_part-01_label-phase1,2020.1.2,Win32,60,,,,,right,1,0.429325,0,6,6,6,1,,,,,,,,
,,,,,1,"[0,0,0,1,0,1,0,0,1,0,0,1,1,1,1,0,0,1,1]",1,,,,,,stimuli/white_butterfly.png,stimuli/grey_butterfly.png,1,stimuli/blue_flower.png,stimuli/yellow_flower.png,stimuli/green_flower.png,stimuli/red_flower.png,left,stimuli/objects/barrel01.jpg,1,2,stimuli/white_butterfly.png,0,2,2020-12-15_15h17.39.111,premce3DEU_ses-02_part-01_label-phase1,2020.1.2,Win32,60,,,,,left,1,0.550235,0,7,7,7,1,,,,,,,,
,,,,,1,"[0,0,0,1,0,1,0,0,1,0,0,1,1,1,1,0,0,1,1,1]",1,,,,,,stimuli/white_butterfly.png,stimuli/grey_butterfly.png,1,stimuli/red_flower.png,stimuli/yellow_flower.png,stimuli/green_flower.png,stimuli/blue_flower.png,right,stimuli/objects/xylophone.jpg,1,2,stimuli/white_butterfly.png,0,2,2020-12-15_15h17.39.111,premce3DEU_ses-02_part-01_label-phase1,2020.1.2,Win32,60,,,,,right,1,0.936505,0,8,8,8,1,,,,,,,,
,,,,,1,"[0,0,0,1,0,1,0,0,1,0,0,1,1,1,1,0,0,1,1,1,1]",1,,,,,,stimuli/grey_butterfly.png,stimuli/white_butterfly.png,1,stimuli/green_flower.png,stimuli/red_flower.png,stimuli/blue_flower.png,stimuli/yellow_flower.png,up,stimuli/objects/forklift.jpg,1,2,stimuli/grey_butterfly.png,0,2,2020-12-15_15h17.39.111,premce3DEU_ses-02_part-01_label-phase1,2020.1.2,Win32,60,,,,,up,1,0.984575,0,9,9,9,1,,,,,,,,
,,,,,1,"[0,0,0,1,0,1,0,0,1,0,0,1,1,1,1,0,0,1,1,1,1,1]",1,,,,,,stimuli/white_butterfly.png,stimuli/grey_butterfly.png,2,stimuli/green_flower.png,stimuli/blue_flower.png,stimuli/yellow_flower.png,stimuli/red_flower.png,right,stimuli/objects/scalpel.jpg,1,2,stimuli/grey_butterfly.png,0,2,2020-12-15_15h17.39.111,premce3DEU_ses-02_part-01_label-phase1,2020.1.2,Win32,60,,,,,right,1,0.50491,0,10,10,10,1,,,,,,,,
,,,,,1,"[0,0,0,1,0,1,0,0,1,0,0,1,1,1,1,0,0,1,1,1,1,1,1]",1,,,,,,stimuli/grey_butterfly.png,stimuli/white_butterfly.png,2,stimuli/yellow_flower.png,stimuli/blue_flower.png,stimuli/red_flower.png,stimuli/green_flower.png,up,stimuli/objects/sailboat.jpg,1,2,stimuli/white_butterfly.png,0,2,2020-12-15_15h17.39.111,premce3DEU_ses-02_part-01_label-phase1,2020.1.2,Win32,60,,,,,up,1,0.67293,0,11,11,11,1,,,,,,,,
,,,,,1,"[0,0,0,1,0,1,0,0,1,0,0,1,1,1,1,0,0,1,1,1,1,1,1,1]",1,,,,,,stimuli/grey_butterfly.png,stimuli/white_butterfly.png,2,stimuli/green_flower.png,stimuli/red_flower.png,stimuli/blue_flower.png,stimuli/yellow_flower.png,down,stimuli/objects/snowman.jpg,1,2,stimuli/white_butterfly.png,0,2,2020-12-15_15h17.39.111,premce3DEU_ses-02_part-01_label-phase1,2020.1.2,Win32,60,,,,,down,1,1.51986,0,12,12,12,1,,,,,,,,
,,,,,1,"[0,0,0,1,0,1,0,0,1,0,0,1,1,1,1,0,0,1,1,1,1,1,1,1,1]",1,,,,,,stimuli/grey_butterfly.png,stimuli/white_butterfly.png,1,stimuli/green_flower.png,stimuli/yellow_flower.png,stimuli/red_flower.png,stimuli/blue_flower.png,down,stimuli/objects/stool01.jpg,1,2,stimuli/grey_butterfly.png,0,2,2020-12-15_15h17.39.111,premce3DEU_ses-02_part-01_label-phase1,2020.1.2,Win32,60,,,,,down,1,0.72473,0,13,13,13,1,,,,,,,,
,,,,,1,"[0,0,0,1,0,1,0,0,1,0,0,1,1,1,1,0,0,1,1,1,1,1,1,1,1,1]",1,,,,,,stimuli/grey_butterfly.png,stimuli/white_butterfly.png,1,stimuli/red_flower.png,stimuli/green_flower.png,stimuli/blue_flower.png,stimuli/yellow_flower.png,left,stimuli/objects/butterfly1.jpg,1,2,stimuli/grey_butterfly.png,0,2,2020-12-15_15h17.39.111,premce3DEU_ses-02_part-01_label-phase1,2020.1.2,Win32,60,,,,,left,1,1.93107,0,14,14,14,1,,,,,,,,
,,,,,0,"[0,0,0,1,0,1,0,0,1,0,0,1,1,1,1,0,0,1,1,1,1,1,1,1,1,1,1]",1,,,,,,stimuli/white_butterfly.png,stimuli/grey_butterfly.png,2,stimuli/green_flower.png,stimuli/blue_flower.png,stimuli/red_flower.png,stimuli/yellow_flower.png,left,stimuli/objects/wheelchair.jpg,0,2,stimuli/grey_butterfly.png,0,2,2020-12-15_15h17.39.111,premce3DEU_ses-02_part-01_label-phase1,2020.1.2,Win32,60,,,,,down,0,0.634255,0,15,15,15,1,,,,,,,,
,,,,,1,"[0,0,0,1,0,1,0,0,1,0,0,1,1,1,1,0,0,1,1,1,1,1,1,1,1,1,1]",1,,,,,,stimuli/grey_butterfly.png,stimuli/white_butterfly.png,2,stimuli/blue_flower.png,stimuli/green_flower.png,stimuli/red_flower.png,stimuli/yellow_flower.png,left,stimuli/objects/desktopcomputer.jpg,1,2,stimuli/white_butterfly.png,0,2,2020-12-15_15h17.39.111,premce3DEU_ses-02_part-01_label-phase1,2020.1.2,Win32,60,,,,,left,1,1.63175,0,16,16,16,1,,,,,,,,
,,,,,0,"[0,0,0,1,0,1,0,0,1,0,0,1,1,1,1,0,0,1,1,1,1,1,1,1,1,1,1,1]",0,,,,,,stimuli/grey_butterfly.png,stimuli/white_butterfly.png,2,stimuli/yellow_flower.png,stimuli/red_flower.png,stimuli/green_flower.png,stimuli/blue_flower.png,right,stimuli/objects/triangle.jpg,1,2,stimuli/white_butterfly.png,0,2,2020-12-15_15h17.39.111,premce3DEU_ses-02_part-01_label-phase1,2020.1.2,Win32,60,,,,,up,0,1.459175,0,17,17,17,1,,,,,,,,
,,,,,1,"[0,0,0,1,0,1,0,0,1,0,0,1,1,1,1,0,0,1,1,1,1,1,1,1,1,1,1,1,0]",1,,,,,,stimuli/white_butterfly.png,stimuli/grey_butterfly.png,1,stimuli/red_flower.png,stimuli/blue_flower.png,stimuli/yellow_flower.png,stimuli/green_flower.png,up,stimuli/objects/dartboard.jpg,1,2,stimuli/white_butterfly.png,0,2,2020-12-15_15h17.39.111,premce3DEU_ses-02_part-01_label-phase1,2020.1.2,Win32,60,,,,,up,1,0.878775,0,18,18,18,1,,,,,,,,
,,,,,0,"[0,0,0,1,0,1,0,0,1,0,0,1,1,1,1,0,0,1,1,1,1,1,1,1,1,1,1,1,0,1]",0,,,,,,stimuli/grey_butterfly.png,stimuli/white_butterfly.png,1,stimuli/red_flower.png,stimuli/blue_flower.png,stimuli/green_flower.png,stimuli/yellow_flower.png,left,stimuli/objects/electricguitar01.jpg,1,2,stimuli/grey_butterfly.png,0,2,2020-12-15_15h17.39.111,premce3DEU_ses-02_part-01_label-phase1,2020.1.2,Win32,60,,,,,up,0,0.782865,0,19,19,19,1,,,,,,,,
,,,,,0,"[0,0,0,1,0,1,0,0,1,0,0,1,1,1,1,0,0,1,1,1,1,1,1,1,1,1,1,1,0,1,0]",0,,,,,,stimuli/white_butterfly.png,stimuli/grey_butterfly.png,2,stimuli/blue_flower.png,stimuli/green_flower.png,stimuli/yellow_flower.png,stimuli/red_flower.png,left,stimuli/objects/pumpkin.jpg,0,2,stimuli/grey_butterfly.png,0,2,2020-12-15_15h17.39.111,premce3DEU_ses-02_part-01_label-phase1,2020.1.2,Win32,60,,,,,right,0,0.64679,0,20,20,20,1,,,,,,,,
,,,,,1,"[0,0,0,1,0,1,0,0,1,0,0,1,1,1,1,0,0,1,1,1,1,1,1,1,1,1,1,1,0,1,0]",1,,,,,,stimuli/grey_butterfly.png,stimuli/white_butterfly.png,1,stimuli/green_flower.png,stimuli/blue_flower.png,stimuli/red_flower.png,stimuli/yellow_flower.png,down,stimuli/objects/doubledoors.jpg,1,2,stimuli/grey_butterfly.png,1,2,2020-12-15_15h17.39.111,premce3DEU_ses-02_part-01_label-phase1,2020.1.2,Win32,60,,,,,down,1,1.115775,0,21,21,21,1,,,,,,,,
,,,,,1,"[0,0,0,1,0,1,0,0,1,0,0,1,1,1,1,0,0,1,1,1,1,1,1,1,1,1,1,1,0,1,0,1]",1,,,,,,stimuli/white_butterfly.png,stimuli/grey_butterfly.png,2,stimuli/yellow_flower.png,stimuli/red_flower.png,stimuli/green_flower.png,stimuli/blue_flower.png,up,stimuli/objects/waterfountain02.jpg,1,2,stimuli/grey_butterfly.png,1,2,2020-12-15_15h17.39.111,premce3DEU_ses-02_part-01_label-phase1,2020.1.2,Win32,60,,,,,up,1,0.55015,0,22,22,22,1,,,,,,,,
,,,,,1,"[0,0,0,1,0,1,0,0,1,0,0,1,1,1,1,0,0,1,1,1,1,1,1,1,1,1,1,1,0,1,0,1,1]",1,,,,,,stimuli/grey_butterfly.png,stimuli/white_butterfly.png,1,stimuli/red_flower.png,stimuli/yellow_flower.png,stimuli/blue_flower.png,stimuli/green_flower.png,left,stimuli/objects/skiboot01a.jpg,1,2,stimuli/grey_butterfly.png,1,2,2020-12-15_15h17.39.111,premce3DEU_ses-02_part-01_label-phase1,2020.1.2,Win32,60,,,,,left,1,0.573515,0,23,23,23,1,,,,,,,,
,,,,,0,"[0,0,0,1,0,1,0,0,1,0,0,1,1,1,1,0,0,1,1,1,1,1,1,1,1,1,1,1,0,1,0,1,1,1]",1,,,,,,stimuli/grey_butterfly.png,stimuli/white_butterfly.png,2,stimuli/red_flower.png,stimuli/green_flower.png,stimuli/yellow_flower.png,stimuli/blue_flower.png,down,stimuli/objects/coffeemaker.jpg,0,2,stimuli/white_butterfly.png,1,2,2020-12-15_15h17.39.111,premce3DEU_ses-02_part-01_label-phase1,2020.1.2,Win32,60,,,,,right,0,0.64597,0,24,24,24,1,,,,,,,,
,,,,,1,"[0,0,0,1,0,1,0,0,1,0,0,1,1,1,1,0,0,1,1,1,1,1,1,1,1,1,1,1,0,1,0,1,1,1]",1,,,,,,stimuli/white_butterfly.png,stimuli/grey_butterfly.png,2,stimuli/red_flower.png,stimuli/blue_flower.png,stimuli/yellow_flower.png,stimuli/green_flower.png,left,stimuli/objects/rockingchair.jpg,1,2,stimuli/grey_butterfly.png,1,2,2020-12-15_15h17.39.111,premce3DEU_ses-02_part-01_label-phase1,2020.1.2,Win32,60,,,,,left,1,0.5883,0,25,25,25,1,,,,,,,,
,,,,,1,"[0,0,0,1,0,1,0,0,1,0,0,1,1,1,1,0,0,1,1,1,1,1,1,1,1,1,1,1,0,1,0,1,1,1,1]",1,,,,,,stimuli/grey_butterfly.png,stimuli/white_butterfly.png,1,stimuli/yellow_flower.png,stimuli/blue_flower.png,stimuli/green_flower.png,stimuli/red_flower.png,right,stimuli/objects/trophy01.jpg,1,2,stimuli/grey_butterfly.png,1,2,2020-12-15_15h17.39.111,premce3DEU_ses-02_part-01_label-phase1,2020.1.2,Win32,60,,,,,right,1,1.24097,0,26,26,26,1,,,,,,,,
,,,,,1,"[0,0,0,1,0,1,0,0,1,0,0,1,1,1,1,0,0,1,1,1,1,1,1,1,1,1,1,1,0,1,0,1,1,1,1,1]",1,,,,,,stimuli/white_butterfly.png,stimuli/grey_butterfly.png,2,stimuli/red_flower.png,stimuli/yellow_flower.png,stimuli/green_flower.png,stimuli/blue_flower.png,left,stimuli/objects/fridge.jpg,1,2,stimuli/grey_butterfly.png,1,2,2020-12-15_15h17.39.111,premce3DEU_ses-02_part-01_label-phase1,2020.1.2,Win32,60,,,,,left,1,0.988135,0,27,27,27,1,,,,,,,,
,,,,,1,"[0,0,0,1,0,1,0,0,1,0,0,1,1,1,1,0,0,1,1,1,1,1,1,1,1,1,1,1,0,1,0,1,1,1,1,1,1]",1,,,,,,stimuli/grey_butterfly.png,stimuli/white_butterfly.png,2,stimuli/blue_flower.png,stimuli/red_flower.png,stimuli/green_flower.png,stimuli/yellow_flower.png,left,stimuli/objects/filingcabinet.jpg,1,2,stimuli/white_butterfly.png,1,2,2020-12-15_15h17.39.111,premce3DEU_ses-02_part-01_label-phase1,2020.1.2,Win32,60,,,,,left,1,0.48223,0,28,28,28,1,,,,,,,,
,,,,,1,"[0,0,0,1,0,1,0,0,1,0,0,1,1,1,1,0,0,1,1,1,1,1,1,1,1,1,1,1,0,1,0,1,1,1,1,1,1,1]",1,,,,,,stimuli/grey_butterfly.png,stimuli/white_butterfly.png,1,stimuli/green_flower.png,stimuli/red_flower.png,stimuli/yellow_flower.png,stimuli/blue_flower.png,up,stimuli/objects/crown.jpg,1,2,stimuli/grey_butterfly.png,1,2,2020-12-15_15h17.39.111,premce3DEU_ses-02_part-01_label-phase1,2020.1.2,Win32,60,,,,,up,1,1.285795,0,29,29,29,1,,,,,,,,
,,,,,1,"[0,0,0,1,0,1,0,0,1,0,0,1,1,1,1,0,0,1,1,1,1,1,1,1,1,1,1,1,0,1,0,1,1,1,1,1,1,1,1]",1,,,,,,stimuli/white_butterfly.png,stimuli/grey_butterfly.png,1,stimuli/green_flower.png,stimuli/red_flower.png,stimuli/yellow_flower.png,stimuli/blue_flower.png,right,stimuli/objects/file.jpg,1,2,stimuli/white_butterfly.png,1,2,2020-12-15_15h17.39.111,premce3DEU_ses-02_part-01_label-phase1,2020.1.2,Win32,60,,,,,right,1,0.433035,0,30,30,30,1,,,,,,,,
,,,,,1,"[0,0,0,1,0,1,0,0,1,0,0,1,1,1,1,0,0,1,1,1,1,1,1,1,1,1,1,1,0,1,0,1,1,1,1,1,1,1,1,1]",1,,,,,,stimuli/white_butterfly.png,stimuli/grey_butterfly.png,2,stimuli/yellow_flower.png,stimuli/red_flower.png,stimuli/blue_flower.png,stimuli/green_flower.png,up,stimuli/objects/blender.jpg,1,2,stimuli/grey_butterfly.png,1,2,2020-12-15_15h17.39.111,premce3DEU_ses-02_part-01_label-phase1,2020.1.2,Win32,60,,,,,up,1,0.870485,0,31,31,31,1,,,,,,,,
,,,,,1,"[0,0,0,1,0,1,0,0,1,0,0,1,1,1,1,0,0,1,1,1,1,1,1,1,1,1,1,1,0,1,0,1,1,1,1,1,1,1,1,1,1]",1,,,,,,stimuli/grey_butterfly.png,stimuli/white_butterfly.png,2,stimuli/blue_flower.png,stimuli/yellow_flower.png,stimuli/green_flower.png,stimuli/red_flower.png,left,stimuli/objects/sandcastle.jpg,1,2,stimuli/white_butterfly.png,1,2,2020-12-15_15h17.39.111,premce3DEU_ses-02_part-01_label-phase1,2020.1.2,Win32,60,,,,,left,1,0.61911,0,32,32,32,1,,,,,,,,
,,,,,1,"[0,0,0,1,0,1,0,0,1,0,0,1,1,1,1,0,0,1,1,1,1,1,1,1,1,1,1,1,0,1,0,1,1,1,1,1,1,1,1,1,1,1]",1,,,,,,stimuli/grey_butterfly.png,stimuli/white_butterfly.png,1,stimuli/red_flower.png,stimuli/blue_flower.png,stimuli/yellow_flower.png,stimuli/green_flower.png,left,stimuli/objects/crab01.jpg,1,2,stimuli/grey_butterfly.png,1,2,2020-12-15_15h17.39.111,premce3DEU_ses-02_part-01_label-phase1,2020.1.2,Win32,60,,,,,left,1,0.616875,0,33,33,33,1,,,,,,,,
,,,,,1,"[0,0,0,1,0,1,0,0,1,0,0,1,1,1,1,0,0,1,1,1,1,1,1,1,1,1,1,1,0,1,0,1,1,1,1,1,1,1,1,1,1,1,1]",1,,,,,,stimuli/grey_butterfly.png,stimuli/white_butterfly.png,2,stimuli/green_flower.png,stimuli/red_flower.png,stimuli/yellow_flower.png,stimuli/blue_flower.png,right,stimuli/objects/butterfly1.jpg,1,2,stimuli/white_butterfly.png,1,2,2020-12-15_15h17.39.111,premce3DEU_ses-02_part-01_label-phase1,2020.1.2,Win32,60,,,,,right,1,0.998295,0,34,34,34,1,,,,,,,,
,,,,,1,"[0,0,0,1,0,1,0,0,1,0,0,1,1,1,1,0,0,1,1,1,1,1,1,1,1,1,1,1,0,1,0,1,1,1,1,1,1,1,1,1,1,1,1,1]",1,,,,,,stimuli/grey_butterfly.png,stimuli/white_butterfly.png,1,stimuli/green_flower.png,stimuli/yellow_flower.png,stimuli/blue_flower.png,stimuli/red_flower.png,right,stimuli/objects/doghouse.jpg,1,2,stimuli/grey_butterfly.png,1,2,2020-12-15_15h17.39.111,premce3DEU_ses-02_part-01_label-phase1,2020.1.2,Win32,60,,,,,right,1,0.878635,0,35,35,35,1,,,,,,,,
,,,,,1,"[0,0,0,1,0,1,0,0,1,0,0,1,1,1,1,0,0,1,1,1,1,1,1,1,1,1,1,1,0,1,0,1,1,1,1,1,1,1,1,1,1,1,1,1,1]",1,,,,,,stimuli/white_butterfly.png,stimuli/grey_butterfly.png,1,stimuli/blue_flower.png,stimuli/red_flower.png,stimuli/yellow_flower.png,stimuli/green_flower.png,left,stimuli/objects/chime.jpg,1,2,stimuli/white_butterfly.png,1,2,2020-12-15_15h17.39.111,premce3DEU_ses-02_part-01_label-phase1,2020.1.2,Win32,60,,,,,left,1,1.05154,0,36,36,36,1,,,,,,,,
,,,,,1,"[0,0,0,1,0,1,0,0,1,0,0,1,1,1,1,0,0,1,1,1,1,1,1,1,1,1,1,1,0,1,0,1,1,1,1,1,1,1,1,1,1,1,1,1,1,1]",1,,,,,,stimuli/grey_butterfly.png,stimuli/white_butterfly.png,2,stimuli/green_flower.png,stimuli/yellow_flower.png,stimuli/blue_flower.png,stimuli/red_flower.png,down,stimuli/objects/contactlens.jpg,1,2,stimuli/white_butterfly.png,1,2,2020-12-15_15h17.39.111,premce3DEU_ses-02_part-01_label-phase1,2020.1.2,Win32,60,,,,,down,1,0.874645,0,37,37,37,1,,,,,,,,
,,,,,1,"[0,0,0,1,0,1,0,0,1,0,0,1,1,1,1,0,0,1,1,1,1,1,1,1,1,1,1,1,0,1,0,1,1,1,1,1,1,1,1,1,1,1,1,1,1,1,1]",1,,,,,,stimuli/grey_butterfly.png,stimuli/white_butterfly.png,2,stimuli/green_flower.png,stimuli/yellow_flower.png,stimuli/red_flower.png,stimuli/blue_flower.png,right,stimuli/objects/snowglobe.jpg,1,2,stimuli/white_butterfly.png,1,2,2020-12-15_15h17.39.111,premce3DEU_ses-02_part-01_label-phase1,2020.1.2,Win32,60,,,,,right,1,1.315535,0,38,38,38,1,,,,,,,,
,,,,,1,"[0,0,0,1,0,1,0,0,1,0,0,1,1,1,1,0,0,1,1,1,1,1,1,1,1,1,1,1,0,1,0,1,1,1,1,1,1,1,1,1,1,1,1,1,1,1,1,1]",1,,,,,,stimuli/white_butterfly.png,stimuli/grey_butterfly.png,2,stimuli/green_flower.png,stimuli/red_flower.png,stimuli/blue_flower.png,stimuli/yellow_flower.png,up,stimuli/objects/beerbottle.jpg,1,2,stimuli/grey_butterfly.png,1,2,2020-12-15_15h17.39.111,premce3DEU_ses-02_part-01_label-phase1,2020.1.2,Win32,60,,,,,up,1,0.584235,0,39,39,39,1,,,,,,,,
,,,,,1,"[0,0,0,1,0,1,0,0,1,0,0,1,1,1,1,0,0,1,1,1,1,1,1,1,1,1,1,1,0,1,0,1,1,1,1,1,1,1,1,1,1,1,1,1,1,1,1,1,1]",1,,,,,,stimuli/grey_butterfly.png,stimuli/white_butterfly.png,1,stimuli/blue_flower.png,stimuli/yellow_flower.png,stimuli/green_flower.png,stimuli/red_flower.png,right,stimuli/objects/salmon.jpg,1,2,stimuli/grey_butterfly.png,1,2,2020-12-15_15h17.39.111,premce3DEU_ses-02_part-01_label-phase1,2020.1.2,Win32,60,,,,,right,1,1.285815,0,40,40,40,1,,,,,,,,
,,,,,1,"[0,0,0,1,0,1,0,0,1,0,0,1,1,1,1,0,0,1,1,1,1,1,1,1,1,1,1,1,0,1,0,1,1,1,1,1,1,1,1,1,1,1,1,1,1,1,1,1,1,1]",1,,,,,,stimuli/grey_butterfly.png,stimuli/white_butterfly.png,2,stimuli/green_flower.png,stimuli/blue_flower.png,stimuli/red_flower.png,stimuli/yellow_flower.png,up,stimuli/objects/microwave.jpg,1,2,stimuli/white_butterfly.png,1,2,2020-12-15_15h17.39.111,premce3DEU_ses-02_part-01_label-phase1,2020.1.2,Win32,60,,,,,up,1,1.362765,0,41,41,41,1,,,,,,,,
,,,,,,,,,,,,,,,,,,,,,,,,,,2,2020-12-15_15h17.39.111,premce3DEU_ses-02_part-01_label-phase1,2020.1.2,Win32,60,,,,,,,,,,,,,0,0,0,0,1,condition_files/tasklistAplus3.csv,,
,,,,,0,"[0,0,0,1,0,1,0,0,1,0,0,1,1,1,1,0,0,1,1,1,1,1,1,1,1,1,1,1,0,1,0,1,1,1,1,1,1,1,1,1,1,1,1,1,1,1,1,1,1,1,1]",0,,,,,,stimuli/grey_butterfly.png,stimuli/white_butterfly.png,2,stimuli/yellow_flower.png,stimuli/blue_flower.png,stimuli/red_flower.png,stimuli/green_flower.png,right,stimuli/objects/whiteout.jpg,1,3,stimuli/white_butterfly.png,0,2,2020-12-15_15h17.39.111,premce3DEU_ses-02_part-01_label-phase1,2020.1.2,Win32,60,,,,,up,0,0.62419,0,0,0,0,1,,,,,,,,
,,,,,0,"[0,0,0,1,0,1,0,0,1,0,0,1,1,1,1,0,0,1,1,1,1,1,1,1,1,1,1,1,0,1,0,1,1,1,1,1,1,1,1,1,1,1,1,1,1,1,1,1,1,1,1,0]",0,,,,,,stimuli/white_butterfly.png,stimuli/grey_butterfly.png,1,stimuli/red_flower.png,stimuli/blue_flower.png,stimuli/yellow_flower.png,stimuli/green_flower.png,right,stimuli/objects/dromedary.jpg,1,3,stimuli/white_butterfly.png,0,2,2020-12-15_15h17.39.111,premce3DEU_ses-02_part-01_label-phase1,2020.1.2,Win32,60,,,,,left,0,1.803355,0,1,1,1,1,,,,,,,,
,,,,,0,"[0,0,0,1,0,1,0,0,1,0,0,1,1,1,1,0,0,1,1,1,1,1,1,1,1,1,1,1,0,1,0,1,1,1,1,1,1,1,1,1,1,1,1,1,1,1,1,1,1,1,1,0,0]",0,,,,,,stimuli/white_butterfly.png,stimuli/grey_butterfly.png,2,stimuli/green_flower.png,stimuli/yellow_flower.png,stimuli/blue_flower.png,stimuli/red_flower.png,up,stimuli/objects/cruiseship.jpg,1,3,stimuli/grey_butterfly.png,0,2,2020-12-15_15h17.39.111,premce3DEU_ses-02_part-01_label-phase1,2020.1.2,Win32,60,,,,,right,0,1.698595,0,2,2,2,1,,,,,,,,
,,,,,0,"[0,0,0,1,0,1,0,0,1,0,0,1,1,1,1,0,0,1,1,1,1,1,1,1,1,1,1,1,0,1,0,1,1,1,1,1,1,1,1,1,1,1,1,1,1,1,1,1,1,1,1,0,0,0]",0,,,,,,stimuli/white_butterfly.png,stimuli/grey_butterfly.png,1,stimuli/blue_flower.png,stimuli/red_flower.png,stimuli/yellow_flower.png,stimuli/green_flower.png,right,stimuli/objects/rollerblade.jpg,1,3,stimuli/white_butterfly.png,0,2,2020-12-15_15h17.39.111,premce3DEU_ses-02_part-01_label-phase1,2020.1.2,Win32,60,,,,,up,0,1.9447,0,3,3,3,1,,,,,,,,
,,,,,0,"[0,0,0,1,0,1,0,0,1,0,0,1,1,1,1,0,0,1,1,1,1,1,1,1,1,1,1,1,0,1,0,1,1,1,1,1,1,1,1,1,1,1,1,1,1,1,1,1,1,1,1,0,0,0,0]",0,,,,,,stimuli/white_butterfly.png,stimuli/grey_butterfly.png,1,stimuli/yellow_flower.png,stimuli/green_flower.png,stimuli/blue_flower.png,stimuli/red_flower.png,left,stimuli/objects/moon.jpg,0,3,stimuli/white_butterfly.png,0,2,2020-12-15_15h17.39.111,premce3DEU_ses-02_part-01_label-phase1,2020.1.2,Win32,60,,,,,up,0,1.61677,0,4,4,4,1,,,,,,,,
,,,,,0,"[0,0,0,1,0,1,0,0,1,0,0,1,1,1,1,0,0,1,1,1,1,1,1,1,1,1,1,1,0,1,0,1,1,1,1,1,1,1,1,1,1,1,1,1,1,1,1,1,1,1,1,0,0,0,0]",0,,,,,,stimuli/white_butterfly.png,stimuli/grey_butterfly.png,2,stimuli/yellow_flower.png,stimuli/red_flower.png,stimuli/blue_flower.png,stimuli/green_flower.png,left,stimuli/objects/windshieldwiper02.jpg,1,3,stimuli/grey_butterfly.png,0,2,2020-12-15_15h17.39.111,premce3DEU_ses-02_part-01_label-phase1,2020.1.2,Win32,60,,,,,up,0,0.658165,0,5,5,5,1,,,,,,,,
,,,,,0,"[0,0,0,1,0,1,0,0,1,0,0,1,1,1,1,0,0,1,1,1,1,1,1,1,1,1,1,1,0,1,0,1,1,1,1,1,1,1,1,1,1,1,1,1,1,1,1,1,1,1,1,0,0,0,0,0]",0,,,,,,stimuli/grey_butterfly.png,stimuli/white_butterfly.png,2,stimuli/blue_flower.png,stimuli/yellow_flower.png,stimuli/green_flower.png,stimuli/red_flower.png,down,stimuli/objects/candycane01a.jpg,1,3,stimuli/white_butterfly.png,0,2,2020-12-15_15h17.39.111,premce3DEU_ses-02_part-01_label-phase1,2020.1.2,Win32,60,,,,,left,0,0.46175,0,6,6,6,1,,,,,,,,
,,,,,0,"[0,0,0,1,0,1,0,0,1,0,0,1,1,1,1,0,0,1,1,1,1,1,1,1,1,1,1,1,0,1,0,1,1,1,1,1,1,1,1,1,1,1,1,1,1,1,1,1,1,1,1,0,0,0,0,0,0]",0,,,,,,stimuli/grey_butterfly.png,stimuli/white_butterfly.png,2,stimuli/blue_flower.png,stimuli/green_flower.png,stimuli/yellow_flower.png,stimuli/red_flower.png,up,stimuli/objects/canoepaddle02.jpg,1,3,stimuli/white_butterfly.png,0,2,2020-12-15_15h17.39.111,premce3DEU_ses-02_part-01_label-phase1,2020.1.2,Win32,60,,,,,right,0,0.790395,0,7,7,7,1,,,,,,,,
,,,,,0,"[0,0,0,1,0,1,0,0,1,0,0,1,1,1,1,0,0,1,1,1,1,1,1,1,1,1,1,1,0,1,0,1,1,1,1,1,1,1,1,1,1,1,1,1,1,1,1,1,1,1,1,0,0,0,0,0,0,0]",0,,,,,,stimuli/white_butterfly.png,stimuli/grey_butterfly.png,2,stimuli/blue_flower.png,stimuli/green_flower.png,stimuli/red_flower.png,stimuli/yellow_flower.png,right,stimuli/objects/hotdog.jpg,1,3,stimuli/grey_butterfly.png,0,2,2020-12-15_15h17.39.111,premce3DEU_ses-02_part-01_label-phase1,2020.1.2,Win32,60,,,,,down,0,1.33789,0,8,8,8,1,,,,,,,,
,,,,,1,"[0,0,0,1,0,1,0,0,1,0,0,1,1,1,1,0,0,1,1,1,1,1,1,1,1,1,1,1,0,1,0,1,1,1,1,1,1,1,1,1,1,1,1,1,1,1,1,1,1,1,1,0,0,0,0,0,0,0,0]",1,,,,,,stimuli/grey_butterfly.png,stimuli/white_butterfly.png,2,stimuli/green_flower.png,stimuli/blue_flower.png,stimuli/yellow_flower.png,stimuli/red_flower.png,left,stimuli/objects/cactus.jpg,1,3,stimuli/white_butterfly.png,0,2,2020-12-15_15h17.39.111,premce3DEU_ses-02_part-01_label-phase1,2020.1.2,Win32,60,,,,,left,1,1.0858,0,9,9,9,1,,,,,,,,
,,,,,0,"[0,0,0,1,0,1,0,0,1,0,0,1,1,1,1,0,0,1,1,1,1,1,1,1,1,1,1,1,0,1,0,1,1,1,1,1,1,1,1,1,1,1,1,1,1,1,1,1,1,1,1,0,0,0,0,0,0,0,0,1]",0,,,,,,stimuli/white_butterfly.png,stimuli/grey_butterfly.png,2,stimuli/red_flower.png,stimuli/blue_flower.png,stimuli/yellow_flower.png,stimuli/green_flower.png,down,stimuli/objects/bookshelf.jpg,1,3,stimuli/grey_butterfly.png,0,2,2020-12-15_15h17.39.111,premce3DEU_ses-02_part-01_label-phase1,2020.1.2,Win32,60,,,,,right,0,1.10519,0,10,10,10,1,,,,,,,,
,,,,,1,"[0,0,0,1,0,1,0,0,1,0,0,1,1,1,1,0,0,1,1,1,1,1,1,1,1,1,1,1,0,1,0,1,1,1,1,1,1,1,1,1,1,1,1,1,1,1,1,1,1,1,1,0,0,0,0,0,0,0,0,1,0]",1,,,,,,stimuli/grey_butterfly.png,stimuli/white_butterfly.png,2,stimuli/yellow_flower.png,stimuli/red_flower.png,stimuli/green_flower.png,stimuli/blue_flower.png,down,stimuli/objects/bathtub.jpg,1,3,stimuli/white_butterfly.png,0,2,2020-12-15_15h17.39.111,premce3DEU_ses-02_part-01_label-phase1,2020.1.2,Win32,60,,,,,down,1,0.651745,0,11,11,11,1,,,,,,,,
,,,,,1,"[0,0,0,1,0,1,0,0,1,0,0,1,1,1,1,0,0,1,1,1,1,1,1,1,1,1,1,1,0,1,0,1,1,1,1,1,1,1,1,1,1,1,1,1,1,1,1,1,1,1,1,0,0,0,0,0,0,0,0,1,0,1]",1,,,,,,stimuli/white_butterfly.png,stimuli/grey_butterfly.png,2,stimuli/yellow_flower.png,stimuli/red_flower.png,stimuli/green_flower.png,stimuli/blue_flower.png,left,stimuli/objects/spicerack.jpg,1,3,stimuli/grey_butterfly.png,0,2,2020-12-15_15h17.39.111,premce3DEU_ses-02_part-01_label-phase1,2020.1.2,Win32,60,,,,,left,1,0.67933,0,12,12,12,1,,,,,,,,
,,,,,1,"[0,0,0,1,0,1,0,0,1,0,0,1,1,1,1,0,0,1,1,1,1,1,1,1,1,1,1,1,0,1,0,1,1,1,1,1,1,1,1,1,1,1,1,1,1,1,1,1,1,1,1,0,0,0,0,0,0,0,0,1,0,1,1]",1,,,,,,stimuli/grey_butterfly.png,stimuli/white_butterfly.png,1,stimuli/yellow_flower.png,stimuli/blue_flower.png,stimuli/red_flower.png,stimuli/green_flower.png,left,stimuli/objects/stepladder.jpg,1,3,stimuli/grey_butterfly.png,0,2,2020-12-15_15h17.39.111,premce3DEU_ses-02_part-01_label-phase1,2020.1.2,Win32,60,,,,,left,1,0.601925,0,13,13,13,1,,,,,,,,
,,,,,1,"[0,0,0,1,0,1,0,0,1,0,0,1,1,1,1,0,0,1,1,1,1,1,1,1,1,1,1,1,0,1,0,1,1,1,1,1,1,1,1,1,1,1,1,1,1,1,1,1,1,1,1,0,0,0,0,0,0,0,0,1,0,1,1,1]",1,,,,,,stimuli/white_butterfly.png,stimuli/grey_butterfly.png,2,stimuli/blue_flower.png,stimuli/red_flower.png,stimuli/green_flower.png,stimuli/yellow_flower.png,right,stimuli/objects/snowshovel.jpg,1,3,stimuli/grey_butterfly.png,0,2,2020-12-15_15h17.39.111,premce3DEU_ses-02_part-01_label-phase1,2020.1.2,Win32,60,,,,,right,1,0.51113,0,14,14,14,1,,,,,,,,
,,,,,1,"[0,0,0,1,0,1,0,0,1,0,0,1,1,1,1,0,0,1,1,1,1,1,1,1,1,1,1,1,0,1,0,1,1,1,1,1,1,1,1,1,1,1,1,1,1,1,1,1,1,1,1,0,0,0,0,0,0,0,0,1,0,1,1,1,1]",1,,,,,,stimuli/grey_butterfly.png,stimuli/white_butterfly.png,2,stimuli/green_flower.png,stimuli/yellow_flower.png,stimuli/blue_flower.png,stimuli/red_flower.png,left,stimuli/objects/seaturtle.jpg,1,3,stimuli/white_butterfly.png,0,2,2020-12-15_15h17.39.111,premce3DEU_ses-02_part-01_label-phase1,2020.1.2,Win32,60,,,,,left,1,1.296935,0,15,15,15,1,,,,,,,,
,,,,,1,"[0,0,0,1,0,1,0,0,1,0,0,1,1,1,1,0,0,1,1,1,1,1,1,1,1,1,1,1,0,1,0,1,1,1,1,1,1,1,1,1,1,1,1,1,1,1,1,1,1,1,1,0,0,0,0,0,0,0,0,1,0,1,1,1,1,1]",1,,,,,,stimuli/white_butterfly.png,stimuli/grey_butterfly.png,1,stimuli/green_flower.png,stimuli/red_flower.png,stimuli/yellow_flower.png,stimuli/blue_flower.png,left,stimuli/objects/winniethepooh.jpg,1,3,stimuli/white_butterfly.png,0,2,2020-12-15_15h17.39.111,premce3DEU_ses-02_part-01_label-phase1,2020.1.2,Win32,60,,,,,left,1,0.50778,0,16,16,16,1,,,,,,,,
,,,,,0,"[0,0,0,1,0,1,0,0,1,0,0,1,1,1,1,0,0,1,1,1,1,1,1,1,1,1,1,1,0,1,0,1,1,1,1,1,1,1,1,1,1,1,1,1,1,1,1,1,1,1,1,0,0,0,0,0,0,0,0,1,0,1,1,1,1,1,1]",1,,,,,,stimuli/grey_butterfly.png,stimuli/white_butterfly.png,1,stimuli/blue_flower.png,stimuli/yellow_flower.png,stimuli/red_flower.png,stimuli/green_flower.png,down,stimuli/objects/butterfly4.jpg,0,3,stimuli/grey_butterfly.png,0,2,2020-12-15_15h17.39.111,premce3DEU_ses-02_part-01_label-phase1,2020.1.2,Win32,60,,,,,up,0,0.476865,0,17,17,17,1,,,,,,,,
,,,,,1,"[0,0,0,1,0,1,0,0,1,0,0,1,1,1,1,0,0,1,1,1,1,1,1,1,1,1,1,1,0,1,0,1,1,1,1,1,1,1,1,1,1,1,1,1,1,1,1,1,1,1,1,0,0,0,0,0,0,0,0,1,0,1,1,1,1,1,1]",1,,,,,,stimuli/grey_butterfly.png,stimuli/white_butterfly.png,2,stimuli/green_flower.png,stimuli/red_flower.png,stimuli/yellow_flower.png,stimuli/blue_flower.png,left,stimuli/objects/witchhat.jpg,1,3,stimuli/white_butterfly.png,0,2,2020-12-15_15h17.39.111,premce3DEU_ses-02_part-01_label-phase1,2020.1.2,Win32,60,,,,,left,1,0.71595,0,18,18,18,1,,,,,,,,
,,,,,1,"[0,0,0,1,0,1,0,0,1,0,0,1,1,1,1,0,0,1,1,1,1,1,1,1,1,1,1,1,0,1,0,1,1,1,1,1,1,1,1,1,1,1,1,1,1,1,1,1,1,1,1,0,0,0,0,0,0,0,0,1,0,1,1,1,1,1,1,1]",1,,,,,,stimuli/grey_butterfly.png,stimuli/white_butterfly.png,1,stimuli/yellow_flower.png,stimuli/red_flower.png,stimuli/green_flower.png,stimuli/blue_flower.png,left,stimuli/objects/granolabar01.jpg,1,3,stimuli/grey_butterfly.png,0,2,2020-12-15_15h17.39.111,premce3DEU_ses-02_part-01_label-phase1,2020.1.2,Win32,60,,,,,left,1,1.492595,0,19,19,19,1,,,,,,,,
,,,,,1,"[0,0,0,1,0,1,0,0,1,0,0,1,1,1,1,0,0,1,1,1,1,1,1,1,1,1,1,1,0,1,0,1,1,1,1,1,1,1,1,1,1,1,1,1,1,1,1,1,1,1,1,0,0,0,0,0,0,0,0,1,0,1,1,1,1,1,1,1,1]",1,,,,,,stimuli/white_butterfly.png,stimuli/grey_butterfly.png,1,stimuli/red_flower.png,stimuli/green_flower.png,stimuli/yellow_flower.png,stimuli/blue_flower.png,up,stimuli/objects/shovel01.jpg,1,3,stimuli/white_butterfly.png,0,2,2020-12-15_15h17.39.111,premce3DEU_ses-02_part-01_label-phase1,2020.1.2,Win32,60,,,,,up,1,0.829085,0,20,20,20,1,,,,,,,,
,,,,,0,"[0,0,0,1,0,1,0,0,1,0,0,1,1,1,1,0,0,1,1,1,1,1,1,1,1,1,1,1,0,1,0,1,1,1,1,1,1,1,1,1,1,1,1,1,1,1,1,1,1,1,1,0,0,0,0,0,0,0,0,1,0,1,1,1,1,1,1,1,1,1]",1,,,,,,stimuli/grey_butterfly.png,stimuli/white_butterfly.png,1,stimuli/red_flower.png,stimuli/green_flower.png,stimuli/yellow_flower.png,stimuli/blue_flower.png,up,stimuli/objects/redonion.jpg,0,3,stimuli/grey_butterfly.png,1,2,2020-12-15_15h17.39.111,premce3DEU_ses-02_part-01_label-phase1,2020.1.2,Win32,60,,,,,down,0,1.245625,0,21,21,21,1,,,,,,,,
,,,,,1,"[0,0,0,1,0,1,0,0,1,0,0,1,1,1,1,0,0,1,1,1,1,1,1,1,1,1,1,1,0,1,0,1,1,1,1,1,1,1,1,1,1,1,1,1,1,1,1,1,1,1,1,0,0,0,0,0,0,0,0,1,0,1,1,1,1,1,1,1,1,1]",1,,,,,,stimuli/white_butterfly.png,stimuli/grey_butterfly.png,1,stimuli/yellow_flower.png,stimuli/blue_flower.png,stimuli/green_flower.png,stimuli/red_flower.png,down,stimuli/objects/fluorescentlightbulb.jpg,1,3,stimuli/white_butterfly.png,1,2,2020-12-15_15h17.39.111,premce3DEU_ses-02_part-01_label-phase1,2020.1.2,Win32,60,,,,,down,1,0.564905,0,22,22,22,1,,,,,,,,
,,,,,0,"[0,0,0,1,0,1,0,0,1,0,0,1,1,1,1,0,0,1,1,1,1,1,1,1,1,1,1,1,0,1,0,1,1,1,1,1,1,1,1,1,1,1,1,1,1,1,1,1,1,1,1,0,0,0,0,0,0,0,0,1,0,1,1,1,1,1,1,1,1,1,1]",0,,,,,,stimuli/grey_butterfly.png,stimuli/white_butterfly.png,1,stimuli/blue_flower.png,stimuli/red_flower.png,stimuli/yellow_flower.png,stimuli/green_flower.png,down,stimuli/objects/urinal.jpg,1,3,stimuli/grey_butterfly.png,1,2,2020-12-15_15h17.39.111,premce3DEU_ses-02_part-01_label-phase1,2020.1.2,Win32,60,,,,,right,0,1.48681,0,23,23,23,1,,,,,,,,
,,,,,1,"[0,0,0,1,0,1,0,0,1,0,0,1,1,1,1,0,0,1,1,1,1,1,1,1,1,1,1,1,0,1,0,1,1,1,1,1,1,1,1,1,1,1,1,1,1,1,1,1,1,1,1,0,0,0,0,0,0,0,0,1,0,1,1,1,1,1,1,1,1,1,1,0]",1,,,,,,stimuli/white_butterfly.png,stimuli/grey_butterfly.png,2,stimuli/green_flower.png,stimuli/red_flower.png,stimuli/yellow_flower.png,stimuli/blue_flower.png,down,stimuli/objects/frisbee.jpg,1,3,stimuli/grey_butterfly.png,1,2,2020-12-15_15h17.39.111,premce3DEU_ses-02_part-01_label-phase1,2020.1.2,Win32,60,,,,,down,1,0.927935,0,24,24,24,1,,,,,,,,
,,,,,0,"[0,0,0,1,0,1,0,0,1,0,0,1,1,1,1,0,0,1,1,1,1,1,1,1,1,1,1,1,0,1,0,1,1,1,1,1,1,1,1,1,1,1,1,1,1,1,1,1,1,1,1,0,0,0,0,0,0,0,0,1,0,1,1,1,1,1,1,1,1,1,1,0,1]",1,,,,,,stimuli/grey_butterfly.png,stimuli/white_butterfly.png,2,stimuli/yellow_flower.png,stimuli/green_flower.png,stimuli/blue_flower.png,stimuli/red_flower.png,down,stimuli/objects/horse.jpg,0,3,stimuli/white_butterfly.png,1,2,2020-12-15_15h17.39.111,premce3DEU_ses-02_part-01_label-phase1,2020.1.2,Win32,60,,,,,up,0,1.81875,0,25,25,25,1,,,,,,,,
,,,,,0,"[0,0,0,1,0,1,0,0,1,0,0,1,1,1,1,0,0,1,1,1,1,1,1,1,1,1,1,1,0,1,0,1,1,1,1,1,1,1,1,1,1,1,1,1,1,1,1,1,1,1,1,0,0,0,0,0,0,0,0,1,0,1,1,1,1,1,1,1,1,1,1,0,1]",1,,,,,,stimuli/white_butterfly.png,stimuli/grey_butterfly.png,2,stimuli/blue_flower.png,stimuli/green_flower.png,stimuli/yellow_flower.png,stimuli/red_flower.png,left,stimuli/objects/tie02.jpg,0,3,stimuli/grey_butterfly.png,1,2,2020-12-15_15h17.39.111,premce3DEU_ses-02_part-01_label-phase1,2020.1.2,Win32,60,,,,,down,0,0.583225,0,26,26,26,1,,,,,,,,
,,,,,0,"[0,0,0,1,0,1,0,0,1,0,0,1,1,1,1,0,0,1,1,1,1,1,1,1,1,1,1,1,0,1,0,1,1,1,1,1,1,1,1,1,1,1,1,1,1,1,1,1,1,1,1,0,0,0,0,0,0,0,0,1,0,1,1,1,1,1,1,1,1,1,1,0,1]",0,,,,,,stimuli/grey_butterfly.png,stimuli/white_butterfly.png,1,stimuli/green_flower.png,stimuli/red_flower.png,stimuli/blue_flower.png,stimuli/yellow_flower.png,right,stimuli/objects/porcupine.jpg,1,3,stimuli/grey_butterfly.png,1,2,2020-12-15_15h17.39.111,premce3DEU_ses-02_part-01_label-phase1,2020.1.2,Win32,60,,,,,left,0,1.820445,0,27,27,27,1,,,,,,,,
,,,,,1,"[0,0,0,1,0,1,0,0,1,0,0,1,1,1,1,0,0,1,1,1,1,1,1,1,1,1,1,1,0,1,0,1,1,1,1,1,1,1,1,1,1,1,1,1,1,1,1,1,1,1,1,0,0,0,0,0,0,0,0,1,0,1,1,1,1,1,1,1,1,1,1,0,1,0]",1,,,,,,stimuli/white_butterfly.png,stimuli/grey_butterfly.png,1,stimuli/green_flower.png,stimuli/yellow_flower.png,stimuli/red_flower.png,stimuli/blue_flower.png,left,stimuli/objects/showerhead01.jpg,1,3,stimuli/white_butterfly.png,1,2,2020-12-15_15h17.39.111,premce3DEU_ses-02_part-01_label-phase1,2020.1.2,Win32,60,,,,,left,1,0.623595,0,28,28,28,1,,,,,,,,
,,,,,1,"[0,0,0,1,0,1,0,0,1,0,0,1,1,1,1,0,0,1,1,1,1,1,1,1,1,1,1,1,0,1,0,1,1,1,1,1,1,1,1,1,1,1,1,1,1,1,1,1,1,1,1,0,0,0,0,0,0,0,0,1,0,1,1,1,1,1,1,1,1,1,1,0,1,0,1]",1,,,,,,stimuli/white_butterfly.png,stimuli/grey_butterfly.png,1,stimuli/blue_flower.png,stimuli/yellow_flower.png,stimuli/green_flower.png,stimuli/red_flower.png,down,stimuli/objects/handheldtelescope.jpg,1,3,stimuli/white_butterfly.png,1,2,2020-12-15_15h17.39.111,premce3DEU_ses-02_part-01_label-phase1,2020.1.2,Win32,60,,,,,down,1,0.67093,0,29,29,29,1,,,,,,,,
,,,,,1,"[0,0,0,1,0,1,0,0,1,0,0,1,1,1,1,0,0,1,1,1,1,1,1,1,1,1,1,1,0,1,0,1,1,1,1,1,1,1,1,1,1,1,1,1,1,1,1,1,1,1,1,0,0,0,0,0,0,0,0,1,0,1,1,1,1,1,1,1,1,1,1,0,1,0,1,1]",1,,,,,,stimuli/grey_butterfly.png,stimuli/white_butterfly.png,1,stimuli/red_flower.png,stimuli/yellow_flower.png,stimuli/blue_flower.png,stimuli/green_flower.png,up,stimuli/objects/acorn.jpg,1,3,stimuli/grey_butterfly.png,1,2,2020-12-15_15h17.39.111,premce3DEU_ses-02_part-01_label-phase1,2020.1.2,Win32,60,,,,,up,1,0.885565,0,30,30,30,1,,,,,,,,
,,,,,0,"[0,0,0,1,0,1,0,0,1,0,0,1,1,1,1,0,0,1,1,1,1,1,1,1,1,1,1,1,0,1,0,1,1,1,1,1,1,1,1,1,1,1,1,1,1,1,1,1,1,1,1,0,0,0,0,0,0,0,0,1,0,1,1,1,1,1,1,1,1,1,1,0,1,0,1,1,1]",0,,,,,,stimuli/grey_butterfly.png,stimuli/white_butterfly.png,2,stimuli/green_flower.png,stimuli/red_flower.png,stimuli/blue_flower.png,stimuli/yellow_flower.png,left,stimuli/objects/polarbear.jpg,1,3,stimuli/white_butterfly.png,1,2,2020-12-15_15h17.39.111,premce3DEU_ses-02_part-01_label-phase1,2020.1.2,Win32,60,,,,,right,0,2.05171,0,31,31,31,1,,,,,,,,
,,,,,1,"[0,0,0,1,0,1,0,0,1,0,0,1,1,1,1,0,0,1,1,1,1,1,1,1,1,1,1,1,0,1,0,1,1,1,1,1,1,1,1,1,1,1,1,1,1,1,1,1,1,1,1,0,0,0,0,0,0,0,0,1,0,1,1,1,1,1,1,1,1,1,1,0,1,0,1,1,1,0]",1,,,,,,stimuli/white_butterfly.png,stimuli/grey_butterfly.png,1,stimuli/yellow_flower.png,stimuli/red_flower.png,stimuli/blue_flower.png,stimuli/green_flower.png,right,stimuli/objects/pirateflag.jpg,1,3,stimuli/white_butterfly.png,1,2,2020-12-15_15h17.39.111,premce3DEU_ses-02_part-01_label-phase1,2020.1.2,Win32,60,,,,,right,1,1.99623,0,32,32,32,1,,,,,,,,
,,,,,1,"[0,0,0,1,0,1,0,0,1,0,0,1,1,1,1,0,0,1,1,1,1,1,1,1,1,1,1,1,0,1,0,1,1,1,1,1,1,1,1,1,1,1,1,1,1,1,1,1,1,1,1,0,0,0,0,0,0,0,0,1,0,1,1,1,1,1,1,1,1,1,1,0,1,0,1,1,1,0,1]",1,,,,,,stimuli/grey_butterfly.png,stimuli/white_butterfly.png,1,stimuli/green_flower.png,stimuli/red_flower.png,stimuli/yellow_flower.png,stimuli/blue_flower.png,down,stimuli/objects/seagull.jpg,1,3,stimuli/grey_butterfly.png,1,2,2020-12-15_15h17.39.111,premce3DEU_ses-02_part-01_label-phase1,2020.1.2,Win32,60,,,,,down,1,0.533265,0,33,33,33,1,,,,,,,,
,,,,,0,"[0,0,0,1,0,1,0,0,1,0,0,1,1,1,1,0,0,1,1,1,1,1,1,1,1,1,1,1,0,1,0,1,1,1,1,1,1,1,1,1,1,1,1,1,1,1,1,1,1,1,1,0,0,0,0,0,0,0,0,1,0,1,1,1,1,1,1,1,1,1,1,0,1,0,1,1,1,0,1,1]",0,,,,,,stimuli/grey_butterfly.png,stimuli/white_butterfly.png,2,stimuli/red_flower.png,stimuli/blue_flower.png,stimuli/yellow_flower.png,stimuli/green_flower.png,right,stimuli/objects/toyanimal05.jpg,1,3,stimuli/white_butterfly.png,1,2,2020-12-15_15h17.39.111,premce3DEU_ses-02_part-01_label-phase1,2020.1.2,Win32,60,,,,,down,0,1.01428,0,34,34,34,1,,,,,,,,
,,,,,1,"[0,0,0,1,0,1,0,0,1,0,0,1,1,1,1,0,0,1,1,1,1,1,1,1,1,1,1,1,0,1,0,1,1,1,1,1,1,1,1,1,1,1,1,1,1,1,1,1,1,1,1,0,0,0,0,0,0,0,0,1,0,1,1,1,1,1,1,1,1,1,1,0,1,0,1,1,1,0,1,1,0]",1,,,,,,stimuli/grey_butterfly.png,stimuli/white_butterfly.png,1,stimuli/blue_flower.png,stimuli/green_flower.png,stimuli/red_flower.png,stimuli/yellow_flower.png,right,stimuli/objects/greywolf.jpg,1,3,stimuli/grey_butterfly.png,1,2,2020-12-15_15h17.39.111,premce3DEU_ses-02_part-01_label-phase1,2020.1.2,Win32,60,,,,,right,1,1.375635,0,35,35,35,1,,,,,,,,
,,,,,0,"[0,0,0,1,0,1,0,0,1,0,0,1,1,1,1,0,0,1,1,1,1,1,1,1,1,1,1,1,0,1,0,1,1,1,1,1,1,1,1,1,1,1,1,1,1,1,1,1,1,1,1,0,0,0,0,0,0,0,0,1,0,1,1,1,1,1,1,1,1,1,1,0,1,0,1,1,1,0,1,1,0,1]",0,,,,,,stimuli/grey_butterfly.png,stimuli/white_butterfly.png,1,stimuli/blue_flower.png,stimuli/green_flower.png,stimuli/yellow_flower.png,stimuli/red_flower.png,down,stimuli/objects/butterfly3.jpg,1,3,stimuli/grey_butterfly.png,1,2,2020-12-15_15h17.39.111,premce3DEU_ses-02_part-01_label-phase1,2020.1.2,Win32,60,,,,,up,0,1.979045,0,36,36,36,1,,,,,,,,
,,,,,1,"[0,0,0,1,0,1,0,0,1,0,0,1,1,1,1,0,0,1,1,1,1,1,1,1,1,1,1,1,0,1,0,1,1,1,1,1,1,1,1,1,1,1,1,1,1,1,1,1,1,1,1,0,0,0,0,0,0,0,0,1,0,1,1,1,1,1,1,1,1,1,1,0,1,0,1,1,1,0,1,1,0,1,0]",1,,,,,,stimuli/grey_butterfly.png,stimuli/white_butterfly.png,1,stimuli/green_flower.png,stimuli/blue_flower.png,stimuli/red_flower.png,stimuli/yellow_flower.png,right,stimuli/objects/surfboard.jpg,1,3,stimuli/grey_butterfly.png,1,2,2020-12-15_15h17.39.111,premce3DEU_ses-02_part-01_label-phase1,2020.1.2,Win32,60,,,,,right,1,0.90394,0,37,37,37,1,,,,,,,,
,,,,,1,"[0,0,0,1,0,1,0,0,1,0,0,1,1,1,1,0,0,1,1,1,1,1,1,1,1,1,1,1,0,1,0,1,1,1,1,1,1,1,1,1,1,1,1,1,1,1,1,1,1,1,1,0,0,0,0,0,0,0,0,1,0,1,1,1,1,1,1,1,1,1,1,0,1,0,1,1,1,0,1,1,0,1,0,1]",1,,,,,,stimuli/grey_butterfly.png,stimuli/white_butterfly.png,2,stimuli/yellow_flower.png,stimuli/blue_flower.png,stimuli/green_flower.png,stimuli/red_flower.png,down,stimuli/objects/donut.jpg,1,3,stimuli/white_butterfly.png,1,2,2020-12-15_15h17.39.111,premce3DEU_ses-02_part-01_label-phase1,2020.1.2,Win32,60,,,,,down,1,0.53573,0,38,38,38,1,,,,,,,,
,,,,,0,"[0,0,0,1,0,1,0,0,1,0,0,1,1,1,1,0,0,1,1,1,1,1,1,1,1,1,1,1,0,1,0,1,1,1,1,1,1,1,1,1,1,1,1,1,1,1,1,1,1,1,1,0,0,0,0,0,0,0,0,1,0,1,1,1,1,1,1,1,1,1,1,0,1,0,1,1,1,0,1,1,0,1,0,1,1]",1,,,,,,stimuli/white_butterfly.png,stimuli/grey_butterfly.png,1,stimuli/green_flower.png,stimuli/red_flower.png,stimuli/blue_flower.png,stimuli/yellow_flower.png,up,stimuli/objects/duck01.jpg,0,3,stimuli/white_butterfly.png,1,2,2020-12-15_15h17.39.111,premce3DEU_ses-02_part-01_label-phase1,2020.1.2,Win32,60,,,,,down,0,0.893855,0,39,39,39,1,,,,,,,,
,,,,,1,"[0,0,0,1,0,1,0,0,1,0,0,1,1,1,1,0,0,1,1,1,1,1,1,1,1,1,1,1,0,1,0,1,1,1,1,1,1,1,1,1,1,1,1,1,1,1,1,1,1,1,1,0,0,0,0,0,0,0,0,1,0,1,1,1,1,1,1,1,1,1,1,0,1,0,1,1,1,0,1,1,0,1,0,1,1]",1,,,,,,stimuli/grey_butterfly.png,stimuli/white_butterfly.png,1,stimuli/green_flower.png,stimuli/yellow_flower.png,stimuli/red_flower.png,stimuli/blue_flower.png,up,stimuli/objects/apron.jpg,1,3,stimuli/grey_butterfly.png,1,2,2020-12-15_15h17.39.111,premce3DEU_ses-02_part-01_label-phase1,2020.1.2,Win32,60,,,,,up,1,1.4628,0,40,40,40,1,,,,,,,,
,,,,,1,"[0,0,0,1,0,1,0,0,1,0,0,1,1,1,1,0,0,1,1,1,1,1,1,1,1,1,1,1,0,1,0,1,1,1,1,1,1,1,1,1,1,1,1,1,1,1,1,1,1,1,1,0,0,0,0,0,0,0,0,1,0,1,1,1,1,1,1,1,1,1,1,0,1,0,1,1,1,0,1,1,0,1,0,1,1,1]",1,,,,,,stimuli/grey_butterfly.png,stimuli/white_butterfly.png,1,stimuli/red_flower.png,stimuli/green_flower.png,stimuli/blue_flower.png,stimuli/yellow_flower.png,right,stimuli/objects/footballhelmet.jpg,1,3,stimuli/grey_butterfly.png,1,2,2020-12-15_15h17.39.111,premce3DEU_ses-02_part-01_label-phase1,2020.1.2,Win32,60,,,,,right,1,1.26608,0,41,41,41,1,,,,,,,,
,,,,,,,,,,,,,,,,,,,,,,,,,,2,2020-12-15_15h17.39.111,premce3DEU_ses-02_part-01_label-phase1,2020.1.2,Win32,60,,,,,,,,,,,,,0,1,1,1,1,condition_files/tasklistB3.csv,,
,,,,,0,"[0,0,0,1,0,1,0,0,1,0,0,1,1,1,1,0,0,1,1,1,1,1,1,1,1,1,1,1,0,1,0,1,1,1,1,1,1,1,1,1,1,1,1,1,1,1,1,1,1,1,1,0,0,0,0,0,0,0,0,1,0,1,1,1,1,1,1,1,1,1,1,0,1,0,1,1,1,0,1,1,0,1,0,1,1,1,1]",0,,,,,,stimuli/white_butterfly.png,stimuli/grey_butterfly.png,1,stimuli/yellow_flower.png,stimuli/blue_flower.png,stimuli/green_flower.png,stimuli/red_flower.png,left,stimuli/objects/christmaslights.jpg,1,4,stimuli/white_butterfly.png,0,2,2020-12-15_15h17.39.111,premce3DEU_ses-02_part-01_label-phase1,2020.1.2,Win32,60,,,,,down,0,1.30201,0,0,0,0,1,,,,,,,,
,,,,,0,"[0,0,0,1,0,1,0,0,1,0,0,1,1,1,1,0,0,1,1,1,1,1,1,1,1,1,1,1,0,1,0,1,1,1,1,1,1,1,1,1,1,1,1,1,1,1,1,1,1,1,1,0,0,0,0,0,0,0,0,1,0,1,1,1,1,1,1,1,1,1,1,0,1,0,1,1,1,0,1,1,0,1,0,1,1,1,1,0]",0,,,,,,stimuli/grey_butterfly.png,stimuli/white_butterfly.png,1,stimuli/red_flower.png,stimuli/yellow_flower.png,stimuli/green_flower.png,stimuli/blue_flower.png,right,stimuli/objects/zebra.jpg,1,4,stimuli/grey_butterfly.png,0,2,2020-12-15_15h17.39.111,premce3DEU_ses-02_part-01_label-phase1,2020.1.2,Win32,60,,,,,up,0,0.98994,0,1,1,1,1,,,,,,,,
,,,,,0,"[0,0,0,1,0,1,0,0,1,0,0,1,1,1,1,0,0,1,1,1,1,1,1,1,1,1,1,1,0,1,0,1,1,1,1,1,1,1,1,1,1,1,1,1,1,1,1,1,1,1,1,0,0,0,0,0,0,0,0,1,0,1,1,1,1,1,1,1,1,1,1,0,1,0,1,1,1,0,1,1,0,1,0,1,1,1,1,0,0]",0,,,,,,stimuli/white_butterfly.png,stimuli/grey_butterfly.png,2,stimuli/blue_flower.png,stimuli/red_flower.png,stimuli/yellow_flower.png,stimuli/green_flower.png,left,stimuli/objects/giraffe.jpg,1,4,stimuli/grey_butterfly.png,0,2,2020-12-15_15h17.39.111,premce3DEU_ses-02_part-01_label-phase1,2020.1.2,Win32,60,,,,,down,0,1.300615,0,2,2,2,1,,,,,,,,
,,,,,0,"[0,0,0,1,0,1,0,0,1,0,0,1,1,1,1,0,0,1,1,1,1,1,1,1,1,1,1,1,0,1,0,1,1,1,1,1,1,1,1,1,1,1,1,1,1,1,1,1,1,1,1,0,0,0,0,0,0,0,0,1,0,1,1,1,1,1,1,1,1,1,1,0,1,0,1,1,1,0,1,1,0,1,0,1,1,1,1,0,0,0]",0,,,,,,stimuli/grey_butterfly.png,stimuli/white_butterfly.png,2,stimuli/blue_flower.png,stimuli/red_flower.png,stimuli/yellow_flower.png,stimuli/green_flower.png,down,stimuli/objects/mirror02.jpg,1,4,stimuli/white_butterfly.png,0,2,2020-12-15_15h17.39.111,premce3DEU_ses-02_part-01_label-phase1,2020.1.2,Win32,60,,,,,up,0,1.59118,0,3,3,3,1,,,,,,,,
,,,,,1,"[0,0,0,1,0,1,0,0,1,0,0,1,1,1,1,0,0,1,1,1,1,1,1,1,1,1,1,1,0,1,0,1,1,1,1,1,1,1,1,1,1,1,1,1,1,1,1,1,1,1,1,0,0,0,0,0,0,0,0,1,0,1,1,1,1,1,1,1,1,1,1,0,1,0,1,1,1,0,1,1,0,1,0,1,1,1,1,0,0,0,0]",1,,,,,,stimuli/white_butterfly.png,stimuli/grey_butterfly.png,1,stimuli/blue_flower.png,stimuli/green_flower.png,stimuli/yellow_flower.png,stimuli/red_flower.png,down,stimuli/objects/recyclingbin.jpg,1,4,stimuli/white_butterfly.png,0,2,2020-12-15_15h17.39.111,premce3DEU_ses-02_part-01_label-phase1,2020.1.2,Win32,60,,,,,down,1,0.47343,0,4,4,4,1,,,,,,,,
,,,,,1,"[0,0,0,1,0,1,0,0,1,0,0,1,1,1,1,0,0,1,1,1,1,1,1,1,1,1,1,1,0,1,0,1,1,1,1,1,1,1,1,1,1,1,1,1,1,1,1,1,1,1,1,0,0,0,0,0,0,0,0,1,0,1,1,1,1,1,1,1,1,1,1,0,1,0,1,1,1,0,1,1,0,1,0,1,1,1,1,0,0,0,0,1]",1,,,,,,stimuli/white_butterfly.png,stimuli/grey_butterfly.png,1,stimuli/red_flower.png,stimuli/blue_flower.png,stimuli/yellow_flower.png,stimuli/green_flower.png,down,stimuli/objects/fishingrod.jpg,1,4,stimuli/white_butterfly.png,0,2,2020-12-15_15h17.39.111,premce3DEU_ses-02_part-01_label-phase1,2020.1.2,Win32,60,,,,,down,1,0.7477,0,5,5,5,1,,,,,,,,
,,,,,0,"[0,0,0,1,0,1,0,0,1,0,0,1,1,1,1,0,0,1,1,1,1,1,1,1,1,1,1,1,0,1,0,1,1,1,1,1,1,1,1,1,1,1,1,1,1,1,1,1,1,1,1,0,0,0,0,0,0,0,0,1,0,1,1,1,1,1,1,1,1,1,1,0,1,0,1,1,1,0,1,1,0,1,0,1,1,1,1,0,0,0,0,1,1]",0,,,,,,stimuli/grey_butterfly.png,stimuli/white_butterfly.png,2,stimuli/green_flower.png,stimuli/red_flower.png,stimuli/blue_flower.png,stimuli/yellow_flower.png,right,stimuli/objects/barn.jpg,1,4,stimuli/white_butterfly.png,0,2,2020-12-15_15h17.39.111,premce3DEU_ses-02_part-01_label-phase1,2020.1.2,Win32,60,,,,,,0,,0,6,6,6,1,,,,,,,,
,,,,,1,"[0,0,0,1,0,1,0,0,1,0,0,1,1,1,1,0,0,1,1,1,1,1,1,1,1,1,1,1,0,1,0,1,1,1,1,1,1,1,1,1,1,1,1,1,1,1,1,1,1,1,1,0,0,0,0,0,0,0,0,1,0,1,1,1,1,1,1,1,1,1,1,0,1,0,1,1,1,0,1,1,0,1,0,1,1,1,1,0,0,0,0,1,1,0]",1,,,,,,stimuli/white_butterfly.png,stimuli/grey_butterfly.png,2,stimuli/blue_flower.png,stimuli/yellow_flower.png,stimuli/green_flower.png,stimuli/red_flower.png,left,stimuli/objects/lightswitch01.jpg,1,4,stimuli/grey_butterfly.png,0,2,2020-12-15_15h17.39.111,premce3DEU_ses-02_part-01_label-phase1,2020.1.2,Win32,60,,,,,left,1,0.68313,0,7,7,7,1,,,,,,,,
,,,,,1,"[0,0,0,1,0,1,0,0,1,0,0,1,1,1,1,0,0,1,1,1,1,1,1,1,1,1,1,1,0,1,0,1,1,1,1,1,1,1,1,1,1,1,1,1,1,1,1,1,1,1,1,0,0,0,0,0,0,0,0,1,0,1,1,1,1,1,1,1,1,1,1,0,1,0,1,1,1,0,1,1,0,1,0,1,1,1,1,0,0,0,0,1,1,0,1]",1,,,,,,stimuli/white_butterfly.png,stimuli/grey_butterfly.png,2,stimuli/red_flower.png,stimuli/green_flower.png,stimuli/blue_flower.png,stimuli/yellow_flower.png,down,stimuli/objects/birdfeeder.jpg,1,4,stimuli/grey_butterfly.png,0,2,2020-12-15_15h17.39.111,premce3DEU_ses-02_part-01_label-phase1,2020.1.2,Win32,60,,,,,down,1,0.594555,0,8,8,8,1,,,,,,,,
,,,,,1,"[0,0,0,1,0,1,0,0,1,0,0,1,1,1,1,0,0,1,1,1,1,1,1,1,1,1,1,1,0,1,0,1,1,1,1,1,1,1,1,1,1,1,1,1,1,1,1,1,1,1,1,0,0,0,0,0,0,0,0,1,0,1,1,1,1,1,1,1,1,1,1,0,1,0,1,1,1,0,1,1,0,1,0,1,1,1,1,0,0,0,0,1,1,0,1,1]",1,,,,,,stimuli/grey_butterfly.png,stimuli/white_butterfly.png,2,stimuli/blue_flower.png,stimuli/red_flower.png,stimuli/green_flower.png,stimuli/yellow_flower.png,left,stimuli/objects/beaver.jpg,0,4,stimuli/white_butterfly.png,0,2,2020-12-15_15h17.39.111,premce3DEU_ses-02_part-01_label-phase1,2020.1.2,Win32,60,,,,,left,1,1.61049,0,9,9,9,1,,,,,,,,
,,,,,1,"[0,0,0,1,0,1,0,0,1,0,0,1,1,1,1,0,0,1,1,1,1,1,1,1,1,1,1,1,0,1,0,1,1,1,1,1,1,1,1,1,1,1,1,1,1,1,1,1,1,1,1,0,0,0,0,0,0,0,0,1,0,1,1,1,1,1,1,1,1,1,1,0,1,0,1,1,1,0,1,1,0,1,0,1,1,1,1,0,0,0,0,1,1,0,1,1]",1,,,,,,stimuli/grey_butterfly.png,stimuli/white_butterfly.png,1,stimuli/yellow_flower.png,stimuli/green_flower.png,stimuli/red_flower.png,stimuli/blue_flower.png,left,stimuli/objects/communitymailbox.jpg,0,4,stimuli/grey_butterfly.png,0,2,2020-12-15_15h17.39.111,premce3DEU_ses-02_part-01_label-phase1,2020.1.2,Win32,60,,,,,left,1,0.9979,0,10,10,10,1,,,,,,,,
,,,,,0,"[0,0,0,1,0,1,0,0,1,0,0,1,1,1,1,0,0,1,1,1,1,1,1,1,1,1,1,1,0,1,0,1,1,1,1,1,1,1,1,1,1,1,1,1,1,1,1,1,1,1,1,0,0,0,0,0,0,0,0,1,0,1,1,1,1,1,1,1,1,1,1,0,1,0,1,1,1,0,1,1,0,1,0,1,1,1,1,0,0,0,0,1,1,0,1,1]",0,,,,,,stimuli/white_butterfly.png,stimuli/grey_butterfly.png,1,stimuli/green_flower.png,stimuli/yellow_flower.png,stimuli/red_flower.png,stimuli/blue_flower.png,up,stimuli/objects/cannon.jpg,1,4,stimuli/white_butterfly.png,0,2,2020-12-15_15h17.39.111,premce3DEU_ses-02_part-01_label-phase1,2020.1.2,Win32,60,,,,,right,0,1.141275,0,11,11,11,1,,,,,,,,
,,,,,1,"[0,0,0,1,0,1,0,0,1,0,0,1,1,1,1,0,0,1,1,1,1,1,1,1,1,1,1,1,0,1,0,1,1,1,1,1,1,1,1,1,1,1,1,1,1,1,1,1,1,1,1,0,0,0,0,0,0,0,0,1,0,1,1,1,1,1,1,1,1,1,1,0,1,0,1,1,1,0,1,1,0,1,0,1,1,1,1,0,0,0,0,1,1,0,1,1,0]",1,,,,,,stimuli/grey_butterfly.png,stimuli/white_butterfly.png,1,stimuli/blue_flower.png,stimuli/red_flower.png,stimuli/yellow_flower.png,stimuli/green_flower.png,left,stimuli/objects/coffeemachine.jpg,1,4,stimuli/grey_butterfly.png,0,2,2020-12-15_15h17.39.111,premce3DEU_ses-02_part-01_label-phase1,2020.1.2,Win32,60,,,,,left,1,1.21427,0,12,12,12,1,,,,,,,,
,,,,,1,"[0,0,0,1,0,1,0,0,1,0,0,1,1,1,1,0,0,1,1,1,1,1,1,1,1,1,1,1,0,1,0,1,1,1,1,1,1,1,1,1,1,1,1,1,1,1,1,1,1,1,1,0,0,0,0,0,0,0,0,1,0,1,1,1,1,1,1,1,1,1,1,0,1,0,1,1,1,0,1,1,0,1,0,1,1,1,1,0,0,0,0,1,1,0,1,1,0,1]",1,,,,,,stimuli/grey_butterfly.png,stimuli/white_butterfly.png,2,stimuli/red_flower.png,stimuli/green_flower.png,stimuli/blue_flower.png,stimuli/yellow_flower.png,right,stimuli/objects/treestump.jpg,1,4,stimuli/white_butterfly.png,0,2,2020-12-15_15h17.39.111,premce3DEU_ses-02_part-01_label-phase1,2020.1.2,Win32,60,,,,,right,1,0.54188,0,13,13,13,1,,,,,,,,
,,,,,0,"[0,0,0,1,0,1,0,0,1,0,0,1,1,1,1,0,0,1,1,1,1,1,1,1,1,1,1,1,0,1,0,1,1,1,1,1,1,1,1,1,1,1,1,1,1,1,1,1,1,1,1,0,0,0,0,0,0,0,0,1,0,1,1,1,1,1,1,1,1,1,1,0,1,0,1,1,1,0,1,1,0,1,0,1,1,1,1,0,0,0,0,1,1,0,1,1,0,1,1]",0,,,,,,stimuli/white_butterfly.png,stimuli/grey_butterfly.png,2,stimuli/blue_flower.png,stimuli/green_flower.png,stimuli/red_flower.png,stimuli/yellow_flower.png,left,stimuli/objects/panda.jpg,1,4,stimuli/grey_butterfly.png,0,2,2020-12-15_15h17.39.111,premce3DEU_ses-02_part-01_label-phase1,2020.1.2,Win32,60,,,,,right,0,1.410895,0,14,14,14,1,,,,,,,,
,,,,,1,"[0,0,0,1,0,1,0,0,1,0,0,1,1,1,1,0,0,1,1,1,1,1,1,1,1,1,1,1,0,1,0,1,1,1,1,1,1,1,1,1,1,1,1,1,1,1,1,1,1,1,1,0,0,0,0,0,0,0,0,1,0,1,1,1,1,1,1,1,1,1,1,0,1,0,1,1,1,0,1,1,0,1,0,1,1,1,1,0,0,0,0,1,1,0,1,1,0,1,1,0]",1,,,,,,stimuli/white_butterfly.png,stimuli/grey_butterfly.png,2,stimuli/yellow_flower.png,stimuli/blue_flower.png,stimuli/red_flower.png,stimuli/green_flower.png,up,stimuli/objects/butterfly2.jpg,1,4,stimuli/grey_butterfly.png,0,2,2020-12-15_15h17.39.111,premce3DEU_ses-02_part-01_label-phase1,2020.1.2,Win32,60,,,,,up,1,0.999305,0,15,15,15,1,,,,,,,,
,,,,,0,"[0,0,0,1,0,1,0,0,1,0,0,1,1,1,1,0,0,1,1,1,1,1,1,1,1,1,1,1,0,1,0,1,1,1,1,1,1,1,1,1,1,1,1,1,1,1,1,1,1,1,1,0,0,0,0,0,0,0,0,1,0,1,1,1,1,1,1,1,1,1,1,0,1,0,1,1,1,0,1,1,0,1,0,1,1,1,1,0,0,0,0,1,1,0,1,1,0,1,1,0,1]",1,,,,,,stimuli/grey_butterfly.png,stimuli/white_butterfly.png,1,stimuli/blue_flower.png,stimuli/yellow_flower.png,stimuli/red_flower.png,stimuli/green_flower.png,down,stimuli/objects/exitsign.jpg,0,4,stimuli/grey_butterfly.png,0,2,2020-12-15_15h17.39.111,premce3DEU_ses-02_part-01_label-phase1,2020.1.2,Win32,60,,,,,left,0,0.59336,0,16,16,16,1,,,,,,,,
,,,,,1,"[0,0,0,1,0,1,0,0,1,0,0,1,1,1,1,0,0,1,1,1,1,1,1,1,1,1,1,1,0,1,0,1,1,1,1,1,1,1,1,1,1,1,1,1,1,1,1,1,1,1,1,0,0,0,0,0,0,0,0,1,0,1,1,1,1,1,1,1,1,1,1,0,1,0,1,1,1,0,1,1,0,1,0,1,1,1,1,0,0,0,0,1,1,0,1,1,0,1,1,0,1]",1,,,,,,stimuli/grey_butterfly.png,stimuli/white_butterfly.png,2,stimuli/yellow_flower.png,stimuli/blue_flower.png,stimuli/green_flower.png,stimuli/red_flower.png,right,stimuli/objects/lintroller.jpg,0,4,stimuli/white_butterfly.png,0,2,2020-12-15_15h17.39.111,premce3DEU_ses-02_part-01_label-phase1,2020.1.2,Win32,60,,,,,right,1,1.16772,0,17,17,17,1,,,,,,,,
,,,,,0,"[0,0,0,1,0,1,0,0,1,0,0,1,1,1,1,0,0,1,1,1,1,1,1,1,1,1,1,1,0,1,0,1,1,1,1,1,1,1,1,1,1,1,1,1,1,1,1,1,1,1,1,0,0,0,0,0,0,0,0,1,0,1,1,1,1,1,1,1,1,1,1,0,1,0,1,1,1,0,1,1,0,1,0,1,1,1,1,0,0,0,0,1,1,0,1,1,0,1,1,0,1]",0,,,,,,stimuli/white_butterfly.png,stimuli/grey_butterfly.png,2,stimuli/yellow_flower.png,stimuli/green_flower.png,stimuli/red_flower.png,stimuli/blue_flower.png,right,stimuli/objects/cymbal.jpg,1,4,stimuli/grey_butterfly.png,0,2,2020-12-15_15h17.39.111,premce3DEU_ses-02_part-01_label-phase1,2020.1.2,Win32,60,,,,,up,0,1.430965,0,18,18,18,1,,,,,,,,
,,,,,0,"[0,0,0,1,0,1,0,0,1,0,0,1,1,1,1,0,0,1,1,1,1,1,1,1,1,1,1,1,0,1,0,1,1,1,1,1,1,1,1,1,1,1,1,1,1,1,1,1,1,1,1,0,0,0,0,0,0,0,0,1,0,1,1,1,1,1,1,1,1,1,1,0,1,0,1,1,1,0,1,1,0,1,0,1,1,1,1,0,0,0,0,1,1,0,1,1,0,1,1,0,1,0]",0,,,,,,stimuli/white_butterfly.png,stimuli/grey_butterfly.png,1,stimuli/green_flower.png,stimuli/red_flower.png,stimuli/blue_flower.png,stimuli/yellow_flower.png,right,stimuli/objects/baseballglove.jpg,1,4,stimuli/white_butterfly.png,0,2,2020-12-15_15h17.39.111,premce3DEU_ses-02_part-01_label-phase1,2020.1.2,Win32,60,,,,,up,0,0.963465,0,19,19,19,1,,,,,,,,
,,,,,0,"[0,0,0,1,0,1,0,0,1,0,0,1,1,1,1,0,0,1,1,1,1,1,1,1,1,1,1,1,0,1,0,1,1,1,1,1,1,1,1,1,1,1,1,1,1,1,1,1,1,1,1,0,0,0,0,0,0,0,0,1,0,1,1,1,1,1,1,1,1,1,1,0,1,0,1,1,1,0,1,1,0,1,0,1,1,1,1,0,0,0,0,1,1,0,1,1,0,1,1,0,1,0,0]",0,,,,,,stimuli/white_butterfly.png,stimuli/grey_butterfly.png,2,stimuli/blue_flower.png,stimuli/green_flower.png,stimuli/yellow_flower.png,stimuli/red_flower.png,up,stimuli/objects/shelves.jpg,0,4,stimuli/grey_butterfly.png,0,2,2020-12-15_15h17.39.111,premce3DEU_ses-02_part-01_label-phase1,2020.1.2,Win32,60,,,,,left,0,0.46086,0,20,20,20,1,,,,,,,,
,,,,,0,"[0,0,0,1,0,1,0,0,1,0,0,1,1,1,1,0,0,1,1,1,1,1,1,1,1,1,1,1,0,1,0,1,1,1,1,1,1,1,1,1,1,1,1,1,1,1,1,1,1,1,1,0,0,0,0,0,0,0,0,1,0,1,1,1,1,1,1,1,1,1,1,0,1,0,1,1,1,0,1,1,0,1,0,1,1,1,1,0,0,0,0,1,1,0,1,1,0,1,1,0,1,0,0]",0,,,,,,stimuli/white_butterfly.png,stimuli/grey_butterfly.png,2,stimuli/yellow_flower.png,stimuli/red_flower.png,stimuli/green_flower.png,stimuli/blue_flower.png,right,stimuli/objects/weddingcake.jpg,1,4,stimuli/grey_butterfly.png,1,2,2020-12-15_15h17.39.111,premce3DEU_ses-02_part-01_label-phase1,2020.1.2,Win32,60,,,,,down,0,0.48198,0,21,21,21,1,,,,,,,,
,,,,,0,"[0,0,0,1,0,1,0,0,1,0,0,1,1,1,1,0,0,1,1,1,1,1,1,1,1,1,1,1,0,1,0,1,1,1,1,1,1,1,1,1,1,1,1,1,1,1,1,1,1,1,1,0,0,0,0,0,0,0,0,1,0,1,1,1,1,1,1,1,1,1,1,0,1,0,1,1,1,0,1,1,0,1,0,1,1,1,1,0,0,0,0,1,1,0,1,1,0,1,1,0,1,0,0,0]",0,,,,,,stimuli/grey_butterfly.png,stimuli/white_butterfly.png,1,stimuli/red_flower.png,stimuli/blue_flower.png,stimuli/green_flower.png,stimuli/yellow_flower.png,up,stimuli/objects/key07.jpg,1,4,stimuli/grey_butterfly.png,1,2,2020-12-15_15h17.39.111,premce3DEU_ses-02_part-01_label-phase1,2020.1.2,Win32,60,,,,,right,0,2.080305,0,22,22,22,1,,,,,,,,
,,,,,1,"[0,0,0,1,0,1,0,0,1,0,0,1,1,1,1,0,0,1,1,1,1,1,1,1,1,1,1,1,0,1,0,1,1,1,1,1,1,1,1,1,1,1,1,1,1,1,1,1,1,1,1,0,0,0,0,0,0,0,0,1,0,1,1,1,1,1,1,1,1,1,1,0,1,0,1,1,1,0,1,1,0,1,0,1,1,1,1,0,0,0,0,1,1,0,1,1,0,1,1,0,1,0,0,0,0]",1,,,,,,stimuli/white_butterfly.png,stimuli/grey_butterfly.png,1,stimuli/red_flower.png,stimuli/green_flower.png,stimuli/blue_flower.png,stimuli/yellow_flower.png,right,stimuli/objects/tricycle.jpg,1,4,stimuli/white_butterfly.png,1,2,2020-12-15_15h17.39.111,premce3DEU_ses-02_part-01_label-phase1,2020.1.2,Win32,60,,,,,right,1,1.288975,0,23,23,23,1,,,,,,,,
,,,,,1,"[0,0,0,1,0,1,0,0,1,0,0,1,1,1,1,0,0,1,1,1,1,1,1,1,1,1,1,1,0,1,0,1,1,1,1,1,1,1,1,1,1,1,1,1,1,1,1,1,1,1,1,0,0,0,0,0,0,0,0,1,0,1,1,1,1,1,1,1,1,1,1,0,1,0,1,1,1,0,1,1,0,1,0,1,1,1,1,0,0,0,0,1,1,0,1,1,0,1,1,0,1,0,0,0,0,1]",1,,,,,,stimuli/white_butterfly.png,stimuli/grey_butterfly.png,2,stimuli/blue_flower.png,stimuli/red_flower.png,stimuli/green_flower.png,stimuli/yellow_flower.png,left,stimuli/objects/escalator.jpg,1,4,stimuli/grey_butterfly.png,1,2,2020-12-15_15h17.39.111,premce3DEU_ses-02_part-01_label-phase1,2020.1.2,Win32,60,,,,,left,1,0.65366,0,24,24,24,1,,,,,,,,
,,,,,0,"[0,0,0,1,0,1,0,0,1,0,0,1,1,1,1,0,0,1,1,1,1,1,1,1,1,1,1,1,0,1,0,1,1,1,1,1,1,1,1,1,1,1,1,1,1,1,1,1,1,1,1,0,0,0,0,0,0,0,0,1,0,1,1,1,1,1,1,1,1,1,1,0,1,0,1,1,1,0,1,1,0,1,0,1,1,1,1,0,0,0,0,1,1,0,1,1,0,1,1,0,1,0,0,0,0,1,1]",0,,,,,,stimuli/grey_butterfly.png,stimuli/white_butterfly.png,1,stimuli/yellow_flower.png,stimuli/red_flower.png,stimuli/green_flower.png,stimuli/blue_flower.png,right,stimuli/objects/volleyball.jpg,1,4,stimuli/grey_butterfly.png,1,2,2020-12-15_15h17.39.111,premce3DEU_ses-02_part-01_label-phase1,2020.1.2,Win32,60,,,,,up,0,0.8949,0,25,25,25,1,,,,,,,,
,,,,,0,"[0,0,0,1,0,1,0,0,1,0,0,1,1,1,1,0,0,1,1,1,1,1,1,1,1,1,1,1,0,1,0,1,1,1,1,1,1,1,1,1,1,1,1,1,1,1,1,1,1,1,1,0,0,0,0,0,0,0,0,1,0,1,1,1,1,1,1,1,1,1,1,0,1,0,1,1,1,0,1,1,0,1,0,1,1,1,1,0,0,0,0,1,1,0,1,1,0,1,1,0,1,0,0,0,0,1,1,0]",0,,,,,,stimuli/grey_butterfly.png,stimuli/white_butterfly.png,1,stimuli/red_flower.png,stimuli/green_flower.png,stimuli/blue_flower.png,stimuli/yellow_flower.png,down,stimuli/objects/football.jpg,1,4,stimuli/grey_butterfly.png,1,2,2020-12-15_15h17.39.111,premce3DEU_ses-02_part-01_label-phase1,2020.1.2,Win32,60,,,,,right,0,0.937155,0,26,26,26,1,,,,,,,,
,,,,,0,"[0,0,0,1,0,1,0,0,1,0,0,1,1,1,1,0,0,1,1,1,1,1,1,1,1,1,1,1,0,1,0,1,1,1,1,1,1,1,1,1,1,1,1,1,1,1,1,1,1,1,1,0,0,0,0,0,0,0,0,1,0,1,1,1,1,1,1,1,1,1,1,0,1,0,1,1,1,0,1,1,0,1,0,1,1,1,1,0,0,0,0,1,1,0,1,1,0,1,1,0,1,0,0,0,0,1,1,0,0]",0,,,,,,stimuli/white_butterfly.png,stimuli/grey_butterfly.png,1,stimuli/red_flower.png,stimuli/yellow_flower.png,stimuli/blue_flower.png,stimuli/green_flower.png,up,stimuli/objects/windturbine.jpg,1,4,stimuli/white_butterfly.png,1,2,2020-12-15_15h17.39.111,premce3DEU_ses-02_part-01_label-phase1,2020.1.2,Win32,60,,,,,down,0,0.7985,0,27,27,27,1,,,,,,,,
,,,,,1,"[0,0,0,1,0,1,0,0,1,0,0,1,1,1,1,0,0,1,1,1,1,1,1,1,1,1,1,1,0,1,0,1,1,1,1,1,1,1,1,1,1,1,1,1,1,1,1,1,1,1,1,0,0,0,0,0,0,0,0,1,0,1,1,1,1,1,1,1,1,1,1,0,1,0,1,1,1,0,1,1,0,1,0,1,1,1,1,0,0,0,0,1,1,0,1,1,0,1,1,0,1,0,0,0,0,1,1,0,0,0]",1,,,,,,stimuli/grey_butterfly.png,stimuli/white_butterfly.png,2,stimuli/green_flower.png,stimuli/yellow_flower.png,stimuli/red_flower.png,stimuli/blue_flower.png,up,stimuli/objects/locomotive.jpg,1,4,stimuli/white_butterfly.png,1,2,2020-12-15_15h17.39.111,premce3DEU_ses-02_part-01_label-phase1,2020.1.2,Win32,60,,,,,up,1,0.41246,0,28,28,28,1,,,,,,,,
,,,,,1,"[0,0,0,1,0,1,0,0,1,0,0,1,1,1,1,0,0,1,1,1,1,1,1,1,1,1,1,1,0,1,0,1,1,1,1,1,1,1,1,1,1,1,1,1,1,1,1,1,1,1,1,0,0,0,0,0,0,0,0,1,0,1,1,1,1,1,1,1,1,1,1,0,1,0,1,1,1,0,1,1,0,1,0,1,1,1,1,0,0,0,0,1,1,0,1,1,0,1,1,0,1,0,0,0,0,1,1,0,0,0,1]",1,,,,,,stimuli/white_butterfly.png,stimuli/grey_butterfly.png,1,stimuli/yellow_flower.png,stimuli/green_flower.png,stimuli/red_flower.png,stimuli/blue_flower.png,left,stimuli/objects/bowlingpin.jpg,1,4,stimuli/white_butterfly.png,1,2,2020-12-15_15h17.39.111,premce3DEU_ses-02_part-01_label-phase1,2020.1.2,Win32,60,,,,,left,1,1.045065,0,29,29,29,1,,,,,,,,
,,,,,0,"[0,0,0,1,0,1,0,0,1,0,0,1,1,1,1,0,0,1,1,1,1,1,1,1,1,1,1,1,0,1,0,1,1,1,1,1,1,1,1,1,1,1,1,1,1,1,1,1,1,1,1,0,0,0,0,0,0,0,0,1,0,1,1,1,1,1,1,1,1,1,1,0,1,0,1,1,1,0,1,1,0,1,0,1,1,1,1,0,0,0,0,1,1,0,1,1,0,1,1,0,1,0,0,0,0,1,1,0,0,0,1,1]",0,,,,,,stimuli/white_butterfly.png,stimuli/grey_butterfly.png,1,stimuli/blue_flower.png,stimuli/green_flower.png,stimuli/red_flower.png,stimuli/yellow_flower.png,right,stimuli/objects/musicstand.jpg,1,4,stimuli/white_butterfly.png,1,2,2020-12-15_15h17.39.111,premce3DEU_ses-02_part-01_label-phase1,2020.1.2,Win32,60,,,,,left,0,0.58089,0,30,30,30,1,,,,,,,,
,,,,,0,"[0,0,0,1,0,1,0,0,1,0,0,1,1,1,1,0,0,1,1,1,1,1,1,1,1,1,1,1,0,1,0,1,1,1,1,1,1,1,1,1,1,1,1,1,1,1,1,1,1,1,1,0,0,0,0,0,0,0,0,1,0,1,1,1,1,1,1,1,1,1,1,0,1,0,1,1,1,0,1,1,0,1,0,1,1,1,1,0,0,0,0,1,1,0,1,1,0,1,1,0,1,0,0,0,0,1,1,0,0,0,1,1,0]",0,,,,,,stimuli/white_butterfly.png,stimuli/grey_butterfly.png,1,stimuli/green_flower.png,stimuli/red_flower.png,stimuli/yellow_flower.png,stimuli/blue_flower.png,left,stimuli/objects/sausage.jpg,0,4,stimuli/white_butterfly.png,1,2,2020-12-15_15h17.39.111,premce3DEU_ses-02_part-01_label-phase1,2020.1.2,Win32,60,,,,,down,0,1.157525,0,31,31,31,1,,,,,,,,
,,,,,0,"[0,0,0,1,0,1,0,0,1,0,0,1,1,1,1,0,0,1,1,1,1,1,1,1,1,1,1,1,0,1,0,1,1,1,1,1,1,1,1,1,1,1,1,1,1,1,1,1,1,1,1,0,0,0,0,0,0,0,0,1,0,1,1,1,1,1,1,1,1,1,1,0,1,0,1,1,1,0,1,1,0,1,0,1,1,1,1,0,0,0,0,1,1,0,1,1,0,1,1,0,1,0,0,0,0,1,1,0,0,0,1,1,0]",0,,,,,,stimuli/grey_butterfly.png,stimuli/white_butterfly.png,2,stimuli/blue_flower.png,stimuli/green_flower.png,stimuli/yellow_flower.png,stimuli/red_flower.png,down,stimuli/objects/car.jpg,1,4,stimuli/white_butterfly.png,1,2,2020-12-15_15h17.39.111,premce3DEU_ses-02_part-01_label-phase1,2020.1.2,Win32,60,,,,,up,0,0.58993,0,32,32,32,1,,,,,,,,
,,,,,1,"[0,0,0,1,0,1,0,0,1,0,0,1,1,1,1,0,0,1,1,1,1,1,1,1,1,1,1,1,0,1,0,1,1,1,1,1,1,1,1,1,1,1,1,1,1,1,1,1,1,1,1,0,0,0,0,0,0,0,0,1,0,1,1,1,1,1,1,1,1,1,1,0,1,0,1,1,1,0,1,1,0,1,0,1,1,1,1,0,0,0,0,1,1,0,1,1,0,1,1,0,1,0,0,0,0,1,1,0,0,0,1,1,0,0]",1,,,,,,stimuli/grey_butterfly.png,stimuli/white_butterfly.png,2,stimuli/yellow_flower.png,stimuli/green_flower.png,stimuli/blue_flower.png,stimuli/red_flower.png,left,stimuli/objects/dreamcatcher.jpg,1,4,stimuli/white_butterfly.png,1,2,2020-12-15_15h17.39.111,premce3DEU_ses-02_part-01_label-phase1,2020.1.2,Win32,60,,,,,left,1,1.3527,0,33,33,33,1,,,,,,,,
,,,,,1,"[0,0,0,1,0,1,0,0,1,0,0,1,1,1,1,0,0,1,1,1,1,1,1,1,1,1,1,1,0,1,0,1,1,1,1,1,1,1,1,1,1,1,1,1,1,1,1,1,1,1,1,0,0,0,0,0,0,0,0,1,0,1,1,1,1,1,1,1,1,1,1,0,1,0,1,1,1,0,1,1,0,1,0,1,1,1,1,0,0,0,0,1,1,0,1,1,0,1,1,0,1,0,0,0,0,1,1,0,0,0,1,1,0,0,1]",1,,,,,,stimuli/white_butterfly.png,stimuli/grey_butterfly.png,2,stimuli/green_flower.png,stimuli/blue_flower.png,stimuli/yellow_flower.png,stimuli/red_flower.png,up,stimuli/objects/table01.jpg,1,4,stimuli/grey_butterfly.png,1,2,2020-12-15_15h17.39.111,premce3DEU_ses-02_part-01_label-phase1,2020.1.2,Win32,60,,,,,up,1,0.80972,0,34,34,34,1,,,,,,,,
,,,,,1,"[0,0,0,1,0,1,0,0,1,0,0,1,1,1,1,0,0,1,1,1,1,1,1,1,1,1,1,1,0,1,0,1,1,1,1,1,1,1,1,1,1,1,1,1,1,1,1,1,1,1,1,0,0,0,0,0,0,0,0,1,0,1,1,1,1,1,1,1,1,1,1,0,1,0,1,1,1,0,1,1,0,1,0,1,1,1,1,0,0,0,0,1,1,0,1,1,0,1,1,0,1,0,0,0,0,1,1,0,0,0,1,1,0,0,1,1]",1,,,,,,stimuli/grey_butterfly.png,stimuli/white_butterfly.png,2,stimuli/yellow_flower.png,stimuli/red_flower.png,stimuli/green_flower.png,stimuli/blue_flower.png,left,stimuli/objects/jaguar.jpg,1,4,stimuli/white_butterfly.png,1,2,2020-12-15_15h17.39.111,premce3DEU_ses-02_part-01_label-phase1,2020.1.2,Win32,60,,,,,left,1,2.22833,0,35,35,35,1,,,,,,,,
,,,,,1,"[0,0,0,1,0,1,0,0,1,0,0,1,1,1,1,0,0,1,1,1,1,1,1,1,1,1,1,1,0,1,0,1,1,1,1,1,1,1,1,1,1,1,1,1,1,1,1,1,1,1,1,0,0,0,0,0,0,0,0,1,0,1,1,1,1,1,1,1,1,1,1,0,1,0,1,1,1,0,1,1,0,1,0,1,1,1,1,0,0,0,0,1,1,0,1,1,0,1,1,0,1,0,0,0,0,1,1,0,0,0,1,1,0,0,1,1,1]",1,,,,,,stimuli/grey_butterfly.png,stimuli/white_butterfly.png,2,stimuli/yellow_flower.png,stimuli/blue_flower.png,stimuli/red_flower.png,stimuli/green_flower.png,left,stimuli/objects/butterfly3.jpg,1,4,stimuli/white_butterfly.png,1,2,2020-12-15_15h17.39.111,premce3DEU_ses-02_part-01_label-phase1,2020.1.2,Win32,60,,,,,left,1,0.5662,0,36,36,36,1,,,,,,,,
,,,,,1,"[0,0,0,1,0,1,0,0,1,0,0,1,1,1,1,0,0,1,1,1,1,1,1,1,1,1,1,1,0,1,0,1,1,1,1,1,1,1,1,1,1,1,1,1,1,1,1,1,1,1,1,0,0,0,0,0,0,0,0,1,0,1,1,1,1,1,1,1,1,1,1,0,1,0,1,1,1,0,1,1,0,1,0,1,1,1,1,0,0,0,0,1,1,0,1,1,0,1,1,0,1,0,0,0,0,1,1,0,0,0,1,1,0,0,1,1,1,1]",1,,,,,,stimuli/white_butterfly.png,stimuli/grey_butterfly.png,2,stimuli/red_flower.png,stimuli/yellow_flower.png,stimuli/green_flower.png,stimuli/blue_flower.png,right,stimuli/objects/skihelmet01.jpg,1,4,stimuli/grey_butterfly.png,1,2,2020-12-15_15h17.39.111,premce3DEU_ses-02_part-01_label-phase1,2020.1.2,Win32,60,,,,,right,1,0.5278,0,37,37,37,1,,,,,,,,
,,,,,0,"[0,0,0,1,0,1,0,0,1,0,0,1,1,1,1,0,0,1,1,1,1,1,1,1,1,1,1,1,0,1,0,1,1,1,1,1,1,1,1,1,1,1,1,1,1,1,1,1,1,1,1,0,0,0,0,0,0,0,0,1,0,1,1,1,1,1,1,1,1,1,1,0,1,0,1,1,1,0,1,1,0,1,0,1,1,1,1,0,0,0,0,1,1,0,1,1,0,1,1,0,1,0,0,0,0,1,1,0,0,0,1,1,0,0,1,1,1,1,1]",0,,,,,,stimuli/grey_butterfly.png,stimuli/white_butterfly.png,2,stimuli/blue_flower.png,stimuli/green_flower.png,stimuli/red_flower.png,stimuli/yellow_flower.png,right,stimuli/objects/bleachers.jpg,1,4,stimuli/white_butterfly.png,1,2,2020-12-15_15h17.39.111,premce3DEU_ses-02_part-01_label-phase1,2020.1.2,Win32,60,,,,,left,0,0.91649,0,38,38,38,1,,,,,,,,
,,,,,1,"[0,0,0,1,0,1,0,0,1,0,0,1,1,1,1,0,0,1,1,1,1,1,1,1,1,1,1,1,0,1,0,1,1,1,1,1,1,1,1,1,1,1,1,1,1,1,1,1,1,1,1,0,0,0,0,0,0,0,0,1,0,1,1,1,1,1,1,1,1,1,1,0,1,0,1,1,1,0,1,1,0,1,0,1,1,1,1,0,0,0,0,1,1,0,1,1,0,1,1,0,1,0,0,0,0,1,1,0,0,0,1,1,0,0,1,1,1,1,1,0]",1,,,,,,stimuli/white_butterfly.png,stimuli/grey_butterfly.png,2,stimuli/green_flower.png,stimuli/yellow_flower.png,stimuli/red_flower.png,stimuli/blue_flower.png,right,stimuli/objects/jackrabbit.jpg,1,4,stimuli/grey_butterfly.png,1,2,2020-12-15_15h17.39.111,premce3DEU_ses-02_part-01_label-phase1,2020.1.2,Win32,60,,,,,right,1,0.64138,0,39,39,39,1,,,,,,,,
,,,,,1,"[0,0,0,1,0,1,0,0,1,0,0,1,1,1,1,0,0,1,1,1,1,1,1,1,1,1,1,1,0,1,0,1,1,1,1,1,1,1,1,1,1,1,1,1,1,1,1,1,1,1,1,0,0,0,0,0,0,0,0,1,0,1,1,1,1,1,1,1,1,1,1,0,1,0,1,1,1,0,1,1,0,1,0,1,1,1,1,0,0,0,0,1,1,0,1,1,0,1,1,0,1,0,0,0,0,1,1,0,0,0,1,1,0,0,1,1,1,1,1,0,1]",1,,,,,,stimuli/grey_butterfly.png,stimuli/white_butterfly.png,1,stimuli/blue_flower.png,stimuli/yellow_flower.png,stimuli/green_flower.png,stimuli/red_flower.png,left,stimuli/objects/hulahoop.jpg,1,4,stimuli/grey_butterfly.png,1,2,2020-12-15_15h17.39.111,premce3DEU_ses-02_part-01_label-phase1,2020.1.2,Win32,60,,,,,left,1,0.40585,0,40,40,40,1,,,,,,,,
,,,,,1,"[0,0,0,1,0,1,0,0,1,0,0,1,1,1,1,0,0,1,1,1,1,1,1,1,1,1,1,1,0,1,0,1,1,1,1,1,1,1,1,1,1,1,1,1,1,1,1,1,1,1,1,0,0,0,0,0,0,0,0,1,0,1,1,1,1,1,1,1,1,1,1,0,1,0,1,1,1,0,1,1,0,1,0,1,1,1,1,0,0,0,0,1,1,0,1,1,0,1,1,0,1,0,0,0,0,1,1,0,0,0,1,1,0,0,1,1,1,1,1,0,1,1]",1,,,,,,stimuli/white_butterfly.png,stimuli/grey_butterfly.png,2,stimuli/red_flower.png,stimuli/yellow_flower.png,stimuli/blue_flower.png,stimuli/green_flower.png,down,stimuli/objects/dogsled.jpg,1,4,stimuli/grey_butterfly.png,1,2,2020-12-15_15h17.39.111,premce3DEU_ses-02_part-01_label-phase1,2020.1.2,Win32,60,,,,,down,1,0.656225,0,41,41,41,1,,,,,,,,
,,,,,,,,,,,,,,,,,,,,,,,,,,2,2020-12-15_15h17.39.111,premce3DEU_ses-02_part-01_label-phase1,2020.1.2,Win32,60,,,,,,,,,,,,,0,2,2,2,1,condition_files/tasklistC3.csv,,
,,,,,1,"[0,0,0,1,0,1,0,0,1,0,0,1,1,1,1,0,0,1,1,1,1,1,1,1,1,1,1,1,0,1,0,1,1,1,1,1,1,1,1,1,1,1,1,1,1,1,1,1,1,1,1,0,0,0,0,0,0,0,0,1,0,1,1,1,1,1,1,1,1,1,1,0,1,0,1,1,1,0,1,1,0,1,0,1,1,1,1,0,0,0,0,1,1,0,1,1,0,1,1,0,1,0,0,0,0,1,1,0,0,0,1,1,0,0,1,1,1,1,1,0,1,1,1]",1,,,,,,stimuli/grey_butterfly.png,stimuli/white_butterfly.png,1,stimuli/red_flower.png,stimuli/green_flower.png,stimuli/yellow_flower.png,stimuli/blue_flower.png,down,stimuli/objects/dalmatian.jpg,0,5,stimuli/grey_butterfly.png,0,2,2020-12-15_15h17.39.111,premce3DEU_ses-02_part-01_label-phase1,2020.1.2,Win32,60,,,,,down,1,1.134595,0,0,0,0,1,,,,,,,,
,,,,,0,"[0,0,0,1,0,1,0,0,1,0,0,1,1,1,1,0,0,1,1,1,1,1,1,1,1,1,1,1,0,1,0,1,1,1,1,1,1,1,1,1,1,1,1,1,1,1,1,1,1,1,1,0,0,0,0,0,0,0,0,1,0,1,1,1,1,1,1,1,1,1,1,0,1,0,1,1,1,0,1,1,0,1,0,1,1,1,1,0,0,0,0,1,1,0,1,1,0,1,1,0,1,0,0,0,0,1,1,0,0,0,1,1,0,0,1,1,1,1,1,0,1,1,1]",0,,,,,,stimuli/white_butterfly.png,stimuli/grey_butterfly.png,1,stimuli/yellow_flower.png,stimuli/red_flower.png,stimuli/blue_flower.png,stimuli/green_flower.png,up,stimuli/objects/trombone.jpg,1,5,stimuli/white_butterfly.png,0,2,2020-12-15_15h17.39.111,premce3DEU_ses-02_part-01_label-phase1,2020.1.2,Win32,60,,,,,down,0,0.967735,0,1,1,1,1,,,,,,,,
,,,,,0,"[0,0,0,1,0,1,0,0,1,0,0,1,1,1,1,0,0,1,1,1,1,1,1,1,1,1,1,1,0,1,0,1,1,1,1,1,1,1,1,1,1,1,1,1,1,1,1,1,1,1,1,0,0,0,0,0,0,0,0,1,0,1,1,1,1,1,1,1,1,1,1,0,1,0,1,1,1,0,1,1,0,1,0,1,1,1,1,0,0,0,0,1,1,0,1,1,0,1,1,0,1,0,0,0,0,1,1,0,0,0,1,1,0,0,1,1,1,1,1,0,1,1,1,0]",0,,,,,,stimuli/grey_butterfly.png,stimuli/white_butterfly.png,2,stimuli/green_flower.png,stimuli/yellow_flower.png,stimuli/red_flower.png,stimuli/blue_flower.png,down,stimuli/objects/trafficlight.jpg,1,5,stimuli/white_butterfly.png,0,2,2020-12-15_15h17.39.111,premce3DEU_ses-02_part-01_label-phase1,2020.1.2,Win32,60,,,,,right,0,0.64404,0,2,2,2,1,,,,,,,,
,,,,,1,"[0,0,0,1,0,1,0,0,1,0,0,1,1,1,1,0,0,1,1,1,1,1,1,1,1,1,1,1,0,1,0,1,1,1,1,1,1,1,1,1,1,1,1,1,1,1,1,1,1,1,1,0,0,0,0,0,0,0,0,1,0,1,1,1,1,1,1,1,1,1,1,0,1,0,1,1,1,0,1,1,0,1,0,1,1,1,1,0,0,0,0,1,1,0,1,1,0,1,1,0,1,0,0,0,0,1,1,0,0,0,1,1,0,0,1,1,1,1,1,0,1,1,1,0,0]",1,,,,,,stimuli/grey_butterfly.png,stimuli/white_butterfly.png,2,stimuli/green_flower.png,stimuli/blue_flower.png,stimuli/red_flower.png,stimuli/yellow_flower.png,down,stimuli/objects/aquarium.jpg,1,5,stimuli/white_butterfly.png,0,2,2020-12-15_15h17.39.111,premce3DEU_ses-02_part-01_label-phase1,2020.1.2,Win32,60,,,,,down,1,0.40177,0,3,3,3,1,,,,,,,,
,,,,,1,"[0,0,0,1,0,1,0,0,1,0,0,1,1,1,1,0,0,1,1,1,1,1,1,1,1,1,1,1,0,1,0,1,1,1,1,1,1,1,1,1,1,1,1,1,1,1,1,1,1,1,1,0,0,0,0,0,0,0,0,1,0,1,1,1,1,1,1,1,1,1,1,0,1,0,1,1,1,0,1,1,0,1,0,1,1,1,1,0,0,0,0,1,1,0,1,1,0,1,1,0,1,0,0,0,0,1,1,0,0,0,1,1,0,0,1,1,1,1,1,0,1,1,1,0,0,1]",1,,,,,,stimuli/white_butterfly.png,stimuli/grey_butterfly.png,1,stimuli/blue_flower.png,stimuli/green_flower.png,stimuli/yellow_flower.png,stimuli/red_flower.png,right,stimuli/objects/dolphin01.jpg,1,5,stimuli/white_butterfly.png,0,2,2020-12-15_15h17.39.111,premce3DEU_ses-02_part-01_label-phase1,2020.1.2,Win32,60,,,,,right,1,0.414385,0,4,4,4,1,,,,,,,,
,,,,,1,"[0,0,0,1,0,1,0,0,1,0,0,1,1,1,1,0,0,1,1,1,1,1,1,1,1,1,1,1,0,1,0,1,1,1,1,1,1,1,1,1,1,1,1,1,1,1,1,1,1,1,1,0,0,0,0,0,0,0,0,1,0,1,1,1,1,1,1,1,1,1,1,0,1,0,1,1,1,0,1,1,0,1,0,1,1,1,1,0,0,0,0,1,1,0,1,1,0,1,1,0,1,0,0,0,0,1,1,0,0,0,1,1,0,0,1,1,1,1,1,0,1,1,1,0,0,1,1]",1,,,,,,stimuli/white_butterfly.png,stimuli/grey_butterfly.png,1,stimuli/green_flower.png,stimuli/blue_flower.png,stimuli/red_flower.png,stimuli/yellow_flower.png,down,stimuli/objects/battleaxe.jpg,1,5,stimuli/white_butterfly.png,0,2,2020-12-15_15h17.39.111,premce3DEU_ses-02_part-01_label-phase1,2020.1.2,Win32,60,,,,,down,1,0.867525,0,5,5,5,1,,,,,,,,
,,,,,1,"[0,0,0,1,0,1,0,0,1,0,0,1,1,1,1,0,0,1,1,1,1,1,1,1,1,1,1,1,0,1,0,1,1,1,1,1,1,1,1,1,1,1,1,1,1,1,1,1,1,1,1,0,0,0,0,0,0,0,0,1,0,1,1,1,1,1,1,1,1,1,1,0,1,0,1,1,1,0,1,1,0,1,0,1,1,1,1,0,0,0,0,1,1,0,1,1,0,1,1,0,1,0,0,0,0,1,1,0,0,0,1,1,0,0,1,1,1,1,1,0,1,1,1,0,0,1,1,1]",1,,,,,,stimuli/white_butterfly.png,stimuli/grey_butterfly.png,1,stimuli/green_flower.png,stimuli/yellow_flower.png,stimuli/blue_flower.png,stimuli/red_flower.png,right,stimuli/objects/cookingpot.jpg,1,5,stimuli/white_butterfly.png,0,2,2020-12-15_15h17.39.111,premce3DEU_ses-02_part-01_label-phase1,2020.1.2,Win32,60,,,,,right,1,0.735255,0,6,6,6,1,,,,,,,,
,,,,,0,"[0,0,0,1,0,1,0,0,1,0,0,1,1,1,1,0,0,1,1,1,1,1,1,1,1,1,1,1,0,1,0,1,1,1,1,1,1,1,1,1,1,1,1,1,1,1,1,1,1,1,1,0,0,0,0,0,0,0,0,1,0,1,1,1,1,1,1,1,1,1,1,0,1,0,1,1,1,0,1,1,0,1,0,1,1,1,1,0,0,0,0,1,1,0,1,1,0,1,1,0,1,0,0,0,0,1,1,0,0,0,1,1,0,0,1,1,1,1,1,0,1,1,1,0,0,1,1,1,1]",1,,,,,,stimuli/white_butterfly.png,stimuli/grey_butterfly.png,2,stimuli/green_flower.png,stimuli/blue_flower.png,stimuli/red_flower.png,stimuli/yellow_flower.png,down,stimuli/objects/vacuumcleaner01.jpg,0,5,stimuli/grey_butterfly.png,0,2,2020-12-15_15h17.39.111,premce3DEU_ses-02_part-01_label-phase1,2020.1.2,Win32,60,,,,,up,0,0.37348,0,7,7,7,1,,,,,,,,
,,,,,1,"[0,0,0,1,0,1,0,0,1,0,0,1,1,1,1,0,0,1,1,1,1,1,1,1,1,1,1,1,0,1,0,1,1,1,1,1,1,1,1,1,1,1,1,1,1,1,1,1,1,1,1,0,0,0,0,0,0,0,0,1,0,1,1,1,1,1,1,1,1,1,1,0,1,0,1,1,1,0,1,1,0,1,0,1,1,1,1,0,0,0,0,1,1,0,1,1,0,1,1,0,1,0,0,0,0,1,1,0,0,0,1,1,0,0,1,1,1,1,1,0,1,1,1,0,0,1,1,1,1]",1,,,,,,stimuli/grey_butterfly.png,stimuli/white_butterfly.png,2,stimuli/blue_flower.png,stimuli/green_flower.png,stimuli/red_flower.png,stimuli/yellow_flower.png,down,stimuli/objects/star.jpg,1,5,stimuli/white_butterfly.png,0,2,2020-12-15_15h17.39.111,premce3DEU_ses-02_part-01_label-phase1,2020.1.2,Win32,60,,,,,down,1,0.729045,0,8,8,8,1,,,,,,,,
,,,,,0,"[0,0,0,1,0,1,0,0,1,0,0,1,1,1,1,0,0,1,1,1,1,1,1,1,1,1,1,1,0,1,0,1,1,1,1,1,1,1,1,1,1,1,1,1,1,1,1,1,1,1,1,0,0,0,0,0,0,0,0,1,0,1,1,1,1,1,1,1,1,1,1,0,1,0,1,1,1,0,1,1,0,1,0,1,1,1,1,0,0,0,0,1,1,0,1,1,0,1,1,0,1,0,0,0,0,1,1,0,0,0,1,1,0,0,1,1,1,1,1,0,1,1,1,0,0,1,1,1,1,1]",0,,,,,,stimuli/white_butterfly.png,stimuli/grey_butterfly.png,2,stimuli/green_flower.png,stimuli/yellow_flower.png,stimuli/blue_flower.png,stimuli/red_flower.png,left,stimuli/objects/bacon.jpg,1,5,stimuli/grey_butterfly.png,0,2,2020-12-15_15h17.39.111,premce3DEU_ses-02_part-01_label-phase1,2020.1.2,Win32,60,,,,,right,0,0.49439,0,9,9,9,1,,,,,,,,
,,,,,1,"[0,0,0,1,0,1,0,0,1,0,0,1,1,1,1,0,0,1,1,1,1,1,1,1,1,1,1,1,0,1,0,1,1,1,1,1,1,1,1,1,1,1,1,1,1,1,1,1,1,1,1,0,0,0,0,0,0,0,0,1,0,1,1,1,1,1,1,1,1,1,1,0,1,0,1,1,1,0,1,1,0,1,0,1,1,1,1,0,0,0,0,1,1,0,1,1,0,1,1,0,1,0,0,0,0,1,1,0,0,0,1,1,0,0,1,1,1,1,1,0,1,1,1,0,0,1,1,1,1,1,0]",1,,,,,,stimuli/white_butterfly.png,stimuli/grey_butterfly.png,2,stimuli/green_flower.png,stimuli/red_flower.png,stimuli/blue_flower.png,stimuli/yellow_flower.png,left,stimuli/objects/golfball.jpg,1,5,stimuli/grey_butterfly.png,0,2,2020-12-15_15h17.39.111,premce3DEU_ses-02_part-01_label-phase1,2020.1.2,Win32,60,,,,,left,1,0.49395,0,10,10,10,1,,,,,,,,
,,,,,1,"[0,0,0,1,0,1,0,0,1,0,0,1,1,1,1,0,0,1,1,1,1,1,1,1,1,1,1,1,0,1,0,1,1,1,1,1,1,1,1,1,1,1,1,1,1,1,1,1,1,1,1,0,0,0,0,0,0,0,0,1,0,1,1,1,1,1,1,1,1,1,1,0,1,0,1,1,1,0,1,1,0,1,0,1,1,1,1,0,0,0,0,1,1,0,1,1,0,1,1,0,1,0,0,0,0,1,1,0,0,0,1,1,0,0,1,1,1,1,1,0,1,1,1,0,0,1,1,1,1,1,0,1]",1,,,,,,stimuli/white_butterfly.png,stimuli/grey_butterfly.png,2,stimuli/blue_flower.png,stimuli/green_flower.png,stimuli/red_flower.png,stimuli/yellow_flower.png,up,stimuli/objects/cuttlefish.jpg,1,5,stimuli/grey_butterfly.png,0,2,2020-12-15_15h17.39.111,premce3DEU_ses-02_part-01_label-phase1,2020.1.2,Win32,60,,,,,up,1,0.80376,0,11,11,11,1,,,,,,,,
,,,,,1,"[0,0,0,1,0,1,0,0,1,0,0,1,1,1,1,0,0,1,1,1,1,1,1,1,1,1,1,1,0,1,0,1,1,1,1,1,1,1,1,1,1,1,1,1,1,1,1,1,1,1,1,0,0,0,0,0,0,0,0,1,0,1,1,1,1,1,1,1,1,1,1,0,1,0,1,1,1,0,1,1,0,1,0,1,1,1,1,0,0,0,0,1,1,0,1,1,0,1,1,0,1,0,0,0,0,1,1,0,0,0,1,1,0,0,1,1,1,1,1,0,1,1,1,0,0,1,1,1,1,1,0,1,1]",1,,,,,,stimuli/white_butterfly.png,stimuli/grey_butterfly.png,2,stimuli/red_flower.png,stimuli/yellow_flower.png,stimuli/green_flower.png,stimuli/blue_flower.png,down,stimuli/objects/tent.jpg,1,5,stimuli/grey_butterfly.png,0,2,2020-12-15_15h17.39.111,premce3DEU_ses-02_part-01_label-phase1,2020.1.2,Win32,60,,,,,down,1,1.12459,0,12,12,12,1,,,,,,,,
,,,,,1,"[0,0,0,1,0,1,0,0,1,0,0,1,1,1,1,0,0,1,1,1,1,1,1,1,1,1,1,1,0,1,0,1,1,1,1,1,1,1,1,1,1,1,1,1,1,1,1,1,1,1,1,0,0,0,0,0,0,0,0,1,0,1,1,1,1,1,1,1,1,1,1,0,1,0,1,1,1,0,1,1,0,1,0,1,1,1,1,0,0,0,0,1,1,0,1,1,0,1,1,0,1,0,0,0,0,1,1,0,0,0,1,1,0,0,1,1,1,1,1,0,1,1,1,0,0,1,1,1,1,1,0,1,1,1]",1,,,,,,stimuli/grey_butterfly.png,stimuli/white_butterfly.png,2,stimuli/yellow_flower.png,stimuli/green_flower.png,stimuli/red_flower.png,stimuli/blue_flower.png,down,stimuli/objects/chipmunk.jpg,1,5,stimuli/white_butterfly.png,0,2,2020-12-15_15h17.39.111,premce3DEU_ses-02_part-01_label-phase1,2020.1.2,Win32,60,,,,,down,1,0.84781,0,13,13,13,1,,,,,,,,
,,,,,0,"[0,0,0,1,0,1,0,0,1,0,0,1,1,1,1,0,0,1,1,1,1,1,1,1,1,1,1,1,0,1,0,1,1,1,1,1,1,1,1,1,1,1,1,1,1,1,1,1,1,1,1,0,0,0,0,0,0,0,0,1,0,1,1,1,1,1,1,1,1,1,1,0,1,0,1,1,1,0,1,1,0,1,0,1,1,1,1,0,0,0,0,1,1,0,1,1,0,1,1,0,1,0,0,0,0,1,1,0,0,0,1,1,0,0,1,1,1,1,1,0,1,1,1,0,0,1,1,1,1,1,0,1,1,1,1]",0,,,,,,stimuli/grey_butterfly.png,stimuli/white_butterfly.png,1,stimuli/blue_flower.png,stimuli/red_flower.png,stimuli/yellow_flower.png,stimuli/green_flower.png,right,stimuli/objects/artichoke01b.jpg,1,5,stimuli/grey_butterfly.png,0,2,2020-12-15_15h17.39.111,premce3DEU_ses-02_part-01_label-phase1,2020.1.2,Win32,60,,,,,up,0,1.465835,0,14,14,14,1,,,,,,,,
,,,,,1,"[0,0,0,1,0,1,0,0,1,0,0,1,1,1,1,0,0,1,1,1,1,1,1,1,1,1,1,1,0,1,0,1,1,1,1,1,1,1,1,1,1,1,1,1,1,1,1,1,1,1,1,0,0,0,0,0,0,0,0,1,0,1,1,1,1,1,1,1,1,1,1,0,1,0,1,1,1,0,1,1,0,1,0,1,1,1,1,0,0,0,0,1,1,0,1,1,0,1,1,0,1,0,0,0,0,1,1,0,0,0,1,1,0,0,1,1,1,1,1,0,1,1,1,0,0,1,1,1,1,1,0,1,1,1,1,0]",1,,,,,,stimuli/grey_butterfly.png,stimuli/white_butterfly.png,1,stimuli/green_flower.png,stimuli/red_flower.png,stimuli/yellow_flower.png,stimuli/blue_flower.png,left,stimuli/objects/ipad02.jpg,1,5,stimuli/grey_butterfly.png,0,2,2020-12-15_15h17.39.111,premce3DEU_ses-02_part-01_label-phase1,2020.1.2,Win32,60,,,,,left,1,0.783045,0,15,15,15,1,,,,,,,,
,,,,,0,"[0,0,0,1,0,1,0,0,1,0,0,1,1,1,1,0,0,1,1,1,1,1,1,1,1,1,1,1,0,1,0,1,1,1,1,1,1,1,1,1,1,1,1,1,1,1,1,1,1,1,1,0,0,0,0,0,0,0,0,1,0,1,1,1,1,1,1,1,1,1,1,0,1,0,1,1,1,0,1,1,0,1,0,1,1,1,1,0,0,0,0,1,1,0,1,1,0,1,1,0,1,0,0,0,0,1,1,0,0,0,1,1,0,0,1,1,1,1,1,0,1,1,1,0,0,1,1,1,1,1,0,1,1,1,1,0,1]",0,,,,,,stimuli/grey_butterfly.png,stimuli/white_butterfly.png,1,stimuli/blue_flower.png,stimuli/green_flower.png,stimuli/red_flower.png,stimuli/yellow_flower.png,up,stimuli/objects/cloud.jpg,1,5,stimuli/grey_butterfly.png,0,2,2020-12-15_15h17.39.111,premce3DEU_ses-02_part-01_label-phase1,2020.1.2,Win32,60,,,,,down,0,1.029815,0,16,16,16,1,,,,,,,,
,,,,,1,"[0,0,0,1,0,1,0,0,1,0,0,1,1,1,1,0,0,1,1,1,1,1,1,1,1,1,1,1,0,1,0,1,1,1,1,1,1,1,1,1,1,1,1,1,1,1,1,1,1,1,1,0,0,0,0,0,0,0,0,1,0,1,1,1,1,1,1,1,1,1,1,0,1,0,1,1,1,0,1,1,0,1,0,1,1,1,1,0,0,0,0,1,1,0,1,1,0,1,1,0,1,0,0,0,0,1,1,0,0,0,1,1,0,0,1,1,1,1,1,0,1,1,1,0,0,1,1,1,1,1,0,1,1,1,1,0,1,0]",1,,,,,,stimuli/white_butterfly.png,stimuli/grey_butterfly.png,1,stimuli/green_flower.png,stimuli/red_flower.png,stimuli/yellow_flower.png,stimuli/blue_flower.png,up,stimuli/objects/butterfly4.jpg,1,5,stimuli/white_butterfly.png,0,2,2020-12-15_15h17.39.111,premce3DEU_ses-02_part-01_label-phase1,2020.1.2,Win32,60,,,,,up,1,0.53785,0,17,17,17,1,,,,,,,,
,,,,,1,"[0,0,0,1,0,1,0,0,1,0,0,1,1,1,1,0,0,1,1,1,1,1,1,1,1,1,1,1,0,1,0,1,1,1,1,1,1,1,1,1,1,1,1,1,1,1,1,1,1,1,1,0,0,0,0,0,0,0,0,1,0,1,1,1,1,1,1,1,1,1,1,0,1,0,1,1,1,0,1,1,0,1,0,1,1,1,1,0,0,0,0,1,1,0,1,1,0,1,1,0,1,0,0,0,0,1,1,0,0,0,1,1,0,0,1,1,1,1,1,0,1,1,1,0,0,1,1,1,1,1,0,1,1,1,1,0,1,0,1]",1,,,,,,stimuli/white_butterfly.png,stimuli/grey_butterfly.png,2,stimuli/yellow_flower.png,stimuli/blue_flower.png,stimuli/red_flower.png,stimuli/green_flower.png,right,stimuli/objects/lionstatue.jpg,1,5,stimuli/grey_butterfly.png,0,2,2020-12-15_15h17.39.111,premce3DEU_ses-02_part-01_label-phase1,2020.1.2,Win32,60,,,,,right,1,0.57826,0,18,18,18,1,,,,,,,,
,,,,,1,"[0,0,0,1,0,1,0,0,1,0,0,1,1,1,1,0,0,1,1,1,1,1,1,1,1,1,1,1,0,1,0,1,1,1,1,1,1,1,1,1,1,1,1,1,1,1,1,1,1,1,1,0,0,0,0,0,0,0,0,1,0,1,1,1,1,1,1,1,1,1,1,0,1,0,1,1,1,0,1,1,0,1,0,1,1,1,1,0,0,0,0,1,1,0,1,1,0,1,1,0,1,0,0,0,0,1,1,0,0,0,1,1,0,0,1,1,1,1,1,0,1,1,1,0,0,1,1,1,1,1,0,1,1,1,1,0,1,0,1,1]",1,,,,,,stimuli/white_butterfly.png,stimuli/grey_butterfly.png,1,stimuli/blue_flower.png,stimuli/red_flower.png,stimuli/green_flower.png,stimuli/yellow_flower.png,up,stimuli/objects/ironingboard01.jpg,1,5,stimuli/white_butterfly.png,0,2,2020-12-15_15h17.39.111,premce3DEU_ses-02_part-01_label-phase1,2020.1.2,Win32,60,,,,,up,1,0.570575,0,19,19,19,1,,,,,,,,
,,,,,0,"[0,0,0,1,0,1,0,0,1,0,0,1,1,1,1,0,0,1,1,1,1,1,1,1,1,1,1,1,0,1,0,1,1,1,1,1,1,1,1,1,1,1,1,1,1,1,1,1,1,1,1,0,0,0,0,0,0,0,0,1,0,1,1,1,1,1,1,1,1,1,1,0,1,0,1,1,1,0,1,1,0,1,0,1,1,1,1,0,0,0,0,1,1,0,1,1,0,1,1,0,1,0,0,0,0,1,1,0,0,0,1,1,0,0,1,1,1,1,1,0,1,1,1,0,0,1,1,1,1,1,0,1,1,1,1,0,1,0,1,1,1]",0,,,,,,stimuli/grey_butterfly.png,stimuli/white_butterfly.png,1,stimuli/red_flower.png,stimuli/green_flower.png,stimuli/blue_flower.png,stimuli/yellow_flower.png,up,stimuli/objects/cork02.jpg,1,5,stimuli/grey_butterfly.png,0,2,2020-12-15_15h17.39.111,premce3DEU_ses-02_part-01_label-phase1,2020.1.2,Win32,60,,,,,left,0,0.92147,0,20,20,20,1,,,,,,,,
,,,,,1,"[0,0,0,1,0,1,0,0,1,0,0,1,1,1,1,0,0,1,1,1,1,1,1,1,1,1,1,1,0,1,0,1,1,1,1,1,1,1,1,1,1,1,1,1,1,1,1,1,1,1,1,0,0,0,0,0,0,0,0,1,0,1,1,1,1,1,1,1,1,1,1,0,1,0,1,1,1,0,1,1,0,1,0,1,1,1,1,0,0,0,0,1,1,0,1,1,0,1,1,0,1,0,0,0,0,1,1,0,0,0,1,1,0,0,1,1,1,1,1,0,1,1,1,0,0,1,1,1,1,1,0,1,1,1,1,0,1,0,1,1,1,0]",1,,,,,,stimuli/grey_butterfly.png,stimuli/white_butterfly.png,2,stimuli/blue_flower.png,stimuli/green_flower.png,stimuli/yellow_flower.png,stimuli/red_flower.png,right,stimuli/objects/hockeystick.jpg,1,5,stimuli/white_butterfly.png,1,2,2020-12-15_15h17.39.111,premce3DEU_ses-02_part-01_label-phase1,2020.1.2,Win32,60,,,,,right,1,0.63404,0,21,21,21,1,,,,,,,,
,,,,,0,"[0,0,0,1,0,1,0,0,1,0,0,1,1,1,1,0,0,1,1,1,1,1,1,1,1,1,1,1,0,1,0,1,1,1,1,1,1,1,1,1,1,1,1,1,1,1,1,1,1,1,1,0,0,0,0,0,0,0,0,1,0,1,1,1,1,1,1,1,1,1,1,0,1,0,1,1,1,0,1,1,0,1,0,1,1,1,1,0,0,0,0,1,1,0,1,1,0,1,1,0,1,0,0,0,0,1,1,0,0,0,1,1,0,0,1,1,1,1,1,0,1,1,1,0,0,1,1,1,1,1,0,1,1,1,1,0,1,0,1,1,1,0,1]",0,,,,,,stimuli/grey_butterfly.png,stimuli/white_butterfly.png,1,stimuli/red_flower.png,stimuli/blue_flower.png,stimuli/green_flower.png,stimuli/yellow_flower.png,down,stimuli/objects/asianelephant.jpg,1,5,stimuli/grey_butterfly.png,1,2,2020-12-15_15h17.39.111,premce3DEU_ses-02_part-01_label-phase1,2020.1.2,Win32,60,,,,,left,0,1.846125,0,22,22,22,1,,,,,,,,
,,,,,1,"[0,0,0,1,0,1,0,0,1,0,0,1,1,1,1,0,0,1,1,1,1,1,1,1,1,1,1,1,0,1,0,1,1,1,1,1,1,1,1,1,1,1,1,1,1,1,1,1,1,1,1,0,0,0,0,0,0,0,0,1,0,1,1,1,1,1,1,1,1,1,1,0,1,0,1,1,1,0,1,1,0,1,0,1,1,1,1,0,0,0,0,1,1,0,1,1,0,1,1,0,1,0,0,0,0,1,1,0,0,0,1,1,0,0,1,1,1,1,1,0,1,1,1,0,0,1,1,1,1,1,0,1,1,1,1,0,1,0,1,1,1,0,1,0]",1,,,,,,stimuli/grey_butterfly.png,stimuli/white_butterfly.png,2,stimuli/yellow_flower.png,stimuli/red_flower.png,stimuli/blue_flower.png,stimuli/green_flower.png,up,stimuli/objects/jeans01.jpg,1,5,stimuli/white_butterfly.png,1,2,2020-12-15_15h17.39.111,premce3DEU_ses-02_part-01_label-phase1,2020.1.2,Win32,60,,,,,up,1,0.46506,0,23,23,23,1,,,,,,,,
,,,,,0,"[0,0,0,1,0,1,0,0,1,0,0,1,1,1,1,0,0,1,1,1,1,1,1,1,1,1,1,1,0,1,0,1,1,1,1,1,1,1,1,1,1,1,1,1,1,1,1,1,1,1,1,0,0,0,0,0,0,0,0,1,0,1,1,1,1,1,1,1,1,1,1,0,1,0,1,1,1,0,1,1,0,1,0,1,1,1,1,0,0,0,0,1,1,0,1,1,0,1,1,0,1,0,0,0,0,1,1,0,0,0,1,1,0,0,1,1,1,1,1,0,1,1,1,0,0,1,1,1,1,1,0,1,1,1,1,0,1,0,1,1,1,0,1,0,1]",1,,,,,,stimuli/white_butterfly.png,stimuli/grey_butterfly.png,2,stimuli/blue_flower.png,stimuli/green_flower.png,stimuli/yellow_flower.png,stimuli/red_flower.png,left,stimuli/objects/gps.jpg,0,5,stimuli/grey_butterfly.png,1,2,2020-12-15_15h17.39.111,premce3DEU_ses-02_part-01_label-phase1,2020.1.2,Win32,60,,,,,up,0,0.428285,0,24,24,24,1,,,,,,,,
,,,,,0,"[0,0,0,1,0,1,0,0,1,0,0,1,1,1,1,0,0,1,1,1,1,1,1,1,1,1,1,1,0,1,0,1,1,1,1,1,1,1,1,1,1,1,1,1,1,1,1,1,1,1,1,0,0,0,0,0,0,0,0,1,0,1,1,1,1,1,1,1,1,1,1,0,1,0,1,1,1,0,1,1,0,1,0,1,1,1,1,0,0,0,0,1,1,0,1,1,0,1,1,0,1,0,0,0,0,1,1,0,0,0,1,1,0,0,1,1,1,1,1,0,1,1,1,0,0,1,1,1,1,1,0,1,1,1,1,0,1,0,1,1,1,0,1,0,1]",0,,,,,,stimuli/white_butterfly.png,stimuli/grey_butterfly.png,2,stimuli/red_flower.png,stimuli/green_flower.png,stimuli/yellow_flower.png,stimuli/blue_flower.png,up,stimuli/objects/hockeypuck.jpg,1,5,stimuli/grey_butterfly.png,1,2,2020-12-15_15h17.39.111,premce3DEU_ses-02_part-01_label-phase1,2020.1.2,Win32,60,,,,,right,0,0.496185,0,25,25,25,1,,,,,,,,
,,,,,1,"[0,0,0,1,0,1,0,0,1,0,0,1,1,1,1,0,0,1,1,1,1,1,1,1,1,1,1,1,0,1,0,1,1,1,1,1,1,1,1,1,1,1,1,1,1,1,1,1,1,1,1,0,0,0,0,0,0,0,0,1,0,1,1,1,1,1,1,1,1,1,1,0,1,0,1,1,1,0,1,1,0,1,0,1,1,1,1,0,0,0,0,1,1,0,1,1,0,1,1,0,1,0,0,0,0,1,1,0,0,0,1,1,0,0,1,1,1,1,1,0,1,1,1,0,0,1,1,1,1,1,0,1,1,1,1,0,1,0,1,1,1,0,1,0,1,0]",1,,,,,,stimuli/grey_butterfly.png,stimuli/white_butterfly.png,1,stimuli/blue_flower.png,stimuli/red_flower.png,stimuli/green_flower.png,stimuli/yellow_flower.png,down,stimuli/objects/lantern03.jpg,1,5,stimuli/grey_butterfly.png,1,2,2020-12-15_15h17.39.111,premce3DEU_ses-02_part-01_label-phase1,2020.1.2,Win32,60,,,,,down,1,1.40526,0,26,26,26,1,,,,,,,,
,,,,,1,"[0,0,0,1,0,1,0,0,1,0,0,1,1,1,1,0,0,1,1,1,1,1,1,1,1,1,1,1,0,1,0,1,1,1,1,1,1,1,1,1,1,1,1,1,1,1,1,1,1,1,1,0,0,0,0,0,0,0,0,1,0,1,1,1,1,1,1,1,1,1,1,0,1,0,1,1,1,0,1,1,0,1,0,1,1,1,1,0,0,0,0,1,1,0,1,1,0,1,1,0,1,0,0,0,0,1,1,0,0,0,1,1,0,0,1,1,1,1,1,0,1,1,1,0,0,1,1,1,1,1,0,1,1,1,1,0,1,0,1,1,1,0,1,0,1,0,1]",1,,,,,,stimuli/white_butterfly.png,stimuli/grey_butterfly.png,2,stimuli/blue_flower.png,stimuli/red_flower.png,stimuli/green_flower.png,stimuli/yellow_flower.png,down,stimuli/objects/monarchbutterfly.jpg,1,5,stimuli/grey_butterfly.png,1,2,2020-12-15_15h17.39.111,premce3DEU_ses-02_part-01_label-phase1,2020.1.2,Win32,60,,,,,down,1,0.915635,0,27,27,27,1,,,,,,,,
,,,,,1,"[0,0,0,1,0,1,0,0,1,0,0,1,1,1,1,0,0,1,1,1,1,1,1,1,1,1,1,1,0,1,0,1,1,1,1,1,1,1,1,1,1,1,1,1,1,1,1,1,1,1,1,0,0,0,0,0,0,0,0,1,0,1,1,1,1,1,1,1,1,1,1,0,1,0,1,1,1,0,1,1,0,1,0,1,1,1,1,0,0,0,0,1,1,0,1,1,0,1,1,0,1,0,0,0,0,1,1,0,0,0,1,1,0,0,1,1,1,1,1,0,1,1,1,0,0,1,1,1,1,1,0,1,1,1,1,0,1,0,1,1,1,0,1,0,1,0,1,1]",1,,,,,,stimuli/grey_butterfly.png,stimuli/white_butterfly.png,1,stimuli/green_flower.png,stimuli/blue_flower.png,stimuli/red_flower.png,stimuli/yellow_flower.png,left,stimuli/objects/tulip02.jpg,1,5,stimuli/grey_butterfly.png,1,2,2020-12-15_15h17.39.111,premce3DEU_ses-02_part-01_label-phase1,2020.1.2,Win32,60,,,,,left,1,1.775295,0,28,28,28,1,,,,,,,,
,,,,,1,"[0,0,0,1,0,1,0,0,1,0,0,1,1,1,1,0,0,1,1,1,1,1,1,1,1,1,1,1,0,1,0,1,1,1,1,1,1,1,1,1,1,1,1,1,1,1,1,1,1,1,1,0,0,0,0,0,0,0,0,1,0,1,1,1,1,1,1,1,1,1,1,0,1,0,1,1,1,0,1,1,0,1,0,1,1,1,1,0,0,0,0,1,1,0,1,1,0,1,1,0,1,0,0,0,0,1,1,0,0,0,1,1,0,0,1,1,1,1,1,0,1,1,1,0,0,1,1,1,1,1,0,1,1,1,1,0,1,0,1,1,1,0,1,0,1,0,1,1,1]",1,,,,,,stimuli/white_butterfly.png,stimuli/grey_butterfly.png,1,stimuli/red_flower.png,stimuli/yellow_flower.png,stimuli/blue_flower.png,stimuli/green_flower.png,left,stimuli/objects/jellyfish.jpg,1,5,stimuli/white_butterfly.png,1,2,2020-12-15_15h17.39.111,premce3DEU_ses-02_part-01_label-phase1,2020.1.2,Win32,60,,,,,left,1,0.597195,0,29,29,29,1,,,,,,,,
,,,,,0,"[0,0,0,1,0,1,0,0,1,0,0,1,1,1,1,0,0,1,1,1,1,1,1,1,1,1,1,1,0,1,0,1,1,1,1,1,1,1,1,1,1,1,1,1,1,1,1,1,1,1,1,0,0,0,0,0,0,0,0,1,0,1,1,1,1,1,1,1,1,1,1,0,1,0,1,1,1,0,1,1,0,1,0,1,1,1,1,0,0,0,0,1,1,0,1,1,0,1,1,0,1,0,0,0,0,1,1,0,0,0,1,1,0,0,1,1,1,1,1,0,1,1,1,0,0,1,1,1,1,1,0,1,1,1,1,0,1,0,1,1,1,0,1,0,1,0,1,1,1,1]",1,,,,,,stimuli/grey_butterfly.png,stimuli/white_butterfly.png,2,stimuli/yellow_flower.png,stimuli/blue_flower.png,stimuli/green_flower.png,stimuli/red_flower.png,left,stimuli/objects/cremebrulee.jpg,0,5,stimuli/white_butterfly.png,1,2,2020-12-15_15h17.39.111,premce3DEU_ses-02_part-01_label-phase1,2020.1.2,Win32,60,,,,,right,0,0.98592,0,30,30,30,1,,,,,,,,
,,,,,1,"[0,0,0,1,0,1,0,0,1,0,0,1,1,1,1,0,0,1,1,1,1,1,1,1,1,1,1,1,0,1,0,1,1,1,1,1,1,1,1,1,1,1,1,1,1,1,1,1,1,1,1,0,0,0,0,0,0,0,0,1,0,1,1,1,1,1,1,1,1,1,1,0,1,0,1,1,1,0,1,1,0,1,0,1,1,1,1,0,0,0,0,1,1,0,1,1,0,1,1,0,1,0,0,0,0,1,1,0,0,0,1,1,0,0,1,1,1,1,1,0,1,1,1,0,0,1,1,1,1,1,0,1,1,1,1,0,1,0,1,1,1,0,1,0,1,0,1,1,1,1]",1,,,,,,stimuli/white_butterfly.png,stimuli/grey_butterfly.png,2,stimuli/yellow_flower.png,stimuli/green_flower.png,stimuli/blue_flower.png,stimuli/red_flower.png,up,stimuli/objects/callbell.jpg,1,5,stimuli/grey_butterfly.png,1,2,2020-12-15_15h17.39.111,premce3DEU_ses-02_part-01_label-phase1,2020.1.2,Win32,60,,,,,up,1,0.9263,0,31,31,31,1,,,,,,,,
,,,,,0,"[0,0,0,1,0,1,0,0,1,0,0,1,1,1,1,0,0,1,1,1,1,1,1,1,1,1,1,1,0,1,0,1,1,1,1,1,1,1,1,1,1,1,1,1,1,1,1,1,1,1,1,0,0,0,0,0,0,0,0,1,0,1,1,1,1,1,1,1,1,1,1,0,1,0,1,1,1,0,1,1,0,1,0,1,1,1,1,0,0,0,0,1,1,0,1,1,0,1,1,0,1,0,0,0,0,1,1,0,0,0,1,1,0,0,1,1,1,1,1,0,1,1,1,0,0,1,1,1,1,1,0,1,1,1,1,0,1,0,1,1,1,0,1,0,1,0,1,1,1,1,1]",0,,,,,,stimuli/grey_butterfly.png,stimuli/white_butterfly.png,2,stimuli/green_flower.png,stimuli/red_flower.png,stimuli/blue_flower.png,stimuli/yellow_flower.png,up,stimuli/objects/basketball01.jpg,1,5,stimuli/white_butterfly.png,1,2,2020-12-15_15h17.39.111,premce3DEU_ses-02_part-01_label-phase1,2020.1.2,Win32,60,,,,,right,0,0.627615,0,32,32,32,1,,,,,,,,
,,,,,1,"[0,0,0,1,0,1,0,0,1,0,0,1,1,1,1,0,0,1,1,1,1,1,1,1,1,1,1,1,0,1,0,1,1,1,1,1,1,1,1,1,1,1,1,1,1,1,1,1,1,1,1,0,0,0,0,0,0,0,0,1,0,1,1,1,1,1,1,1,1,1,1,0,1,0,1,1,1,0,1,1,0,1,0,1,1,1,1,0,0,0,0,1,1,0,1,1,0,1,1,0,1,0,0,0,0,1,1,0,0,0,1,1,0,0,1,1,1,1,1,0,1,1,1,0,0,1,1,1,1,1,0,1,1,1,1,0,1,0,1,1,1,0,1,0,1,0,1,1,1,1,1,0]",1,,,,,,stimuli/grey_butterfly.png,stimuli/white_butterfly.png,1,stimuli/red_flower.png,stimuli/yellow_flower.png,stimuli/blue_flower.png,stimuli/green_flower.png,right,stimuli/objects/jokercard.jpg,1,5,stimuli/grey_butterfly.png,1,2,2020-12-15_15h17.39.111,premce3DEU_ses-02_part-01_label-phase1,2020.1.2,Win32,60,,,,,right,1,0.88368,0,33,33,33,1,,,,,,,,
,,,,,1,"[0,0,0,1,0,1,0,0,1,0,0,1,1,1,1,0,0,1,1,1,1,1,1,1,1,1,1,1,0,1,0,1,1,1,1,1,1,1,1,1,1,1,1,1,1,1,1,1,1,1,1,0,0,0,0,0,0,0,0,1,0,1,1,1,1,1,1,1,1,1,1,0,1,0,1,1,1,0,1,1,0,1,0,1,1,1,1,0,0,0,0,1,1,0,1,1,0,1,1,0,1,0,0,0,0,1,1,0,0,0,1,1,0,0,1,1,1,1,1,0,1,1,1,0,0,1,1,1,1,1,0,1,1,1,1,0,1,0,1,1,1,0,1,0,1,0,1,1,1,1,1,0,1]",1,,,,,,stimuli/grey_butterfly.png,stimuli/white_butterfly.png,2,stimuli/red_flower.png,stimuli/green_flower.png,stimuli/blue_flower.png,stimuli/yellow_flower.png,left,stimuli/objects/soccerball.jpg,1,5,stimuli/white_butterfly.png,1,2,2020-12-15_15h17.39.111,premce3DEU_ses-02_part-01_label-phase1,2020.1.2,Win32,60,,,,,left,1,0.80648,0,34,34,34,1,,,,,,,,
,,,,,0,"[0,0,0,1,0,1,0,0,1,0,0,1,1,1,1,0,0,1,1,1,1,1,1,1,1,1,1,1,0,1,0,1,1,1,1,1,1,1,1,1,1,1,1,1,1,1,1,1,1,1,1,0,0,0,0,0,0,0,0,1,0,1,1,1,1,1,1,1,1,1,1,0,1,0,1,1,1,0,1,1,0,1,0,1,1,1,1,0,0,0,0,1,1,0,1,1,0,1,1,0,1,0,0,0,0,1,1,0,0,0,1,1,0,0,1,1,1,1,1,0,1,1,1,0,0,1,1,1,1,1,0,1,1,1,1,0,1,0,1,1,1,0,1,0,1,0,1,1,1,1,1,0,1,1]",0,,,,,,stimuli/grey_butterfly.png,stimuli/white_butterfly.png,2,stimuli/blue_flower.png,stimuli/red_flower.png,stimuli/yellow_flower.png,stimuli/green_flower.png,up,stimuli/objects/butterfly2.jpg,1,5,stimuli/white_butterfly.png,1,2,2020-12-15_15h17.39.111,premce3DEU_ses-02_part-01_label-phase1,2020.1.2,Win32,60,,,,,right,0,0.89003,0,35,35,35,1,,,,,,,,
,,,,,1,"[0,0,0,1,0,1,0,0,1,0,0,1,1,1,1,0,0,1,1,1,1,1,1,1,1,1,1,1,0,1,0,1,1,1,1,1,1,1,1,1,1,1,1,1,1,1,1,1,1,1,1,0,0,0,0,0,0,0,0,1,0,1,1,1,1,1,1,1,1,1,1,0,1,0,1,1,1,0,1,1,0,1,0,1,1,1,1,0,0,0,0,1,1,0,1,1,0,1,1,0,1,0,0,0,0,1,1,0,0,0,1,1,0,0,1,1,1,1,1,0,1,1,1,0,0,1,1,1,1,1,0,1,1,1,1,0,1,0,1,1,1,0,1,0,1,0,1,1,1,1,1,0,1,1,0]",1,,,,,,stimuli/white_butterfly.png,stimuli/grey_butterfly.png,2,stimuli/blue_flower.png,stimuli/yellow_flower.png,stimuli/green_flower.png,stimuli/red_flower.png,down,stimuli/objects/eyepatch.jpg,1,5,stimuli/grey_butterfly.png,1,2,2020-12-15_15h17.39.111,premce3DEU_ses-02_part-01_label-phase1,2020.1.2,Win32,60,,,,,down,1,0.863775,0,36,36,36,1,,,,,,,,
,,,,,1,"[0,0,0,1,0,1,0,0,1,0,0,1,1,1,1,0,0,1,1,1,1,1,1,1,1,1,1,1,0,1,0,1,1,1,1,1,1,1,1,1,1,1,1,1,1,1,1,1,1,1,1,0,0,0,0,0,0,0,0,1,0,1,1,1,1,1,1,1,1,1,1,0,1,0,1,1,1,0,1,1,0,1,0,1,1,1,1,0,0,0,0,1,1,0,1,1,0,1,1,0,1,0,0,0,0,1,1,0,0,0,1,1,0,0,1,1,1,1,1,0,1,1,1,0,0,1,1,1,1,1,0,1,1,1,1,0,1,0,1,1,1,0,1,0,1,0,1,1,1,1,1,0,1,1,0,1]",1,,,,,,stimuli/grey_butterfly.png,stimuli/white_butterfly.png,2,stimuli/red_flower.png,stimuli/yellow_flower.png,stimuli/blue_flower.png,stimuli/green_flower.png,left,stimuli/objects/cashregister01.jpg,1,5,stimuli/white_butterfly.png,1,2,2020-12-15_15h17.39.111,premce3DEU_ses-02_part-01_label-phase1,2020.1.2,Win32,60,,,,,left,1,1.72846,0,37,37,37,1,,,,,,,,
,,,,,0,"[0,0,0,1,0,1,0,0,1,0,0,1,1,1,1,0,0,1,1,1,1,1,1,1,1,1,1,1,0,1,0,1,1,1,1,1,1,1,1,1,1,1,1,1,1,1,1,1,1,1,1,0,0,0,0,0,0,0,0,1,0,1,1,1,1,1,1,1,1,1,1,0,1,0,1,1,1,0,1,1,0,1,0,1,1,1,1,0,0,0,0,1,1,0,1,1,0,1,1,0,1,0,0,0,0,1,1,0,0,0,1,1,0,0,1,1,1,1,1,0,1,1,1,0,0,1,1,1,1,1,0,1,1,1,1,0,1,0,1,1,1,0,1,0,1,0,1,1,1,1,1,0,1,1,0,1,1]",1,,,,,,stimuli/white_butterfly.png,stimuli/grey_butterfly.png,1,stimuli/blue_flower.png,stimuli/green_flower.png,stimuli/red_flower.png,stimuli/yellow_flower.png,up,stimuli/objects/jellybean.jpg,0,5,stimuli/white_butterfly.png,1,2,2020-12-15_15h17.39.111,premce3DEU_ses-02_part-01_label-phase1,2020.1.2,Win32,60,,,,,down,0,0.714505,0,38,38,38,1,,,,,,,,
,,,,,0,"[0,0,0,1,0,1,0,0,1,0,0,1,1,1,1,0,0,1,1,1,1,1,1,1,1,1,1,1,0,1,0,1,1,1,1,1,1,1,1,1,1,1,1,1,1,1,1,1,1,1,1,0,0,0,0,0,0,0,0,1,0,1,1,1,1,1,1,1,1,1,1,0,1,0,1,1,1,0,1,1,0,1,0,1,1,1,1,0,0,0,0,1,1,0,1,1,0,1,1,0,1,0,0,0,0,1,1,0,0,0,1,1,0,0,1,1,1,1,1,0,1,1,1,0,0,1,1,1,1,1,0,1,1,1,1,0,1,0,1,1,1,0,1,0,1,0,1,1,1,1,1,0,1,1,0,1,1]",0,,,,,,stimuli/grey_butterfly.png,stimuli/white_butterfly.png,2,stimuli/blue_flower.png,stimuli/yellow_flower.png,stimuli/green_flower.png,stimuli/red_flower.png,right,stimuli/objects/balcony02.jpg,1,5,stimuli/white_butterfly.png,1,2,2020-12-15_15h17.39.111,premce3DEU_ses-02_part-01_label-phase1,2020.1.2,Win32,60,,,,,down,0,0.887335,0,39,39,39,1,,,,,,,,
,,,,,1,"[0,0,0,1,0,1,0,0,1,0,0,1,1,1,1,0,0,1,1,1,1,1,1,1,1,1,1,1,0,1,0,1,1,1,1,1,1,1,1,1,1,1,1,1,1,1,1,1,1,1,1,0,0,0,0,0,0,0,0,1,0,1,1,1,1,1,1,1,1,1,1,0,1,0,1,1,1,0,1,1,0,1,0,1,1,1,1,0,0,0,0,1,1,0,1,1,0,1,1,0,1,0,0,0,0,1,1,0,0,0,1,1,0,0,1,1,1,1,1,0,1,1,1,0,0,1,1,1,1,1,0,1,1,1,1,0,1,0,1,1,1,0,1,0,1,0,1,1,1,1,1,0,1,1,0,1,1,0]",1,,,,,,stimuli/white_butterfly.png,stimuli/grey_butterfly.png,2,stimuli/green_flower.png,stimuli/yellow_flower.png,stimuli/red_flower.png,stimuli/blue_flower.png,left,stimuli/objects/fingerprint.jpg,1,5,stimuli/grey_butterfly.png,1,2,2020-12-15_15h17.39.111,premce3DEU_ses-02_part-01_label-phase1,2020.1.2,Win32,60,,,,,left,1,1.71096,0,40,40,40,1,,,,,,,,
,,,,,0,"[0,0,0,1,0,1,0,0,1,0,0,1,1,1,1,0,0,1,1,1,1,1,1,1,1,1,1,1,0,1,0,1,1,1,1,1,1,1,1,1,1,1,1,1,1,1,1,1,1,1,1,0,0,0,0,0,0,0,0,1,0,1,1,1,1,1,1,1,1,1,1,0,1,0,1,1,1,0,1,1,0,1,0,1,1,1,1,0,0,0,0,1,1,0,1,1,0,1,1,0,1,0,0,0,0,1,1,0,0,0,1,1,0,0,1,1,1,1,1,0,1,1,1,0,0,1,1,1,1,1,0,1,1,1,1,0,1,0,1,1,1,0,1,0,1,0,1,1,1,1,1,0,1,1,0,1,1,0,1]",1,,,,,,stimuli/grey_butterfly.png,stimuli/white_butterfly.png,2,stimuli/yellow_flower.png,stimuli/red_flower.png,stimuli/green_flower.png,stimuli/blue_flower.png,right,stimuli/objects/bolt01a.jpg,0,5,stimuli/white_butterfly.png,1,2,2020-12-15_15h17.39.111,premce3DEU_ses-02_part-01_label-phase1,2020.1.2,Win32,60,,,,,up,0,1.327325,0,41,41,41,1,,,,,,,,
,,,,,,,,,,,,,,,,,,,,,,,,,,2,2020-12-15_15h17.39.111,premce3DEU_ses-02_part-01_label-phase1,2020.1.2,Win32,60,,,,,,,,,,,,,,,,,,,space,6.620015
