Instr_resp_2.keys,Instr_resp_2.rt,warmup_resp.keys,warmup_resp.corr,warmup_resp.rt,myownaccuracy,respcorrs,myownaccuracyCORR,trials.thisRepN,trials.thisTrialN,trials.thisN,trials.thisIndex,trials.ran,first_butterfly,second_butterfly,Cue,left_flower,top_flower,bottom_flower,right_flower,corr_ans,obj_file,trial_cond,switch_cond,cuedButter,trial_type,participant,date,expName,psychopyVersion,OS,frameRate,Instr_resp.keys,Instr_resp.rt,taskGoresp.keys,taskGoresp.rt,task_resp_3.keys,task_resp_3.corr,task_resp_3.rt,task_loop.thisRepN,task_loop.thisTrialN,task_loop.thisN,task_loop.thisIndex,task_loop.ran,list_loop.thisRepN,list_loop.thisTrialN,list_loop.thisN,list_loop.thisIndex,list_loop.ran,list,key_resp.keys,key_resp.rt
space,65.092395,down,1,0.72144,1,[],1,0,0,0,7,1,stimuli/grey_butterfly.png,stimuli/white_butterfly.png,2,stimuli/red_flower.png,stimuli/green_flower.png,stimuli/blue_flower.png,stimuli/yellow_flower.png,down,stimuli/objects/firehydrant.jpg,1,99,stimuli/white_butterfly.png,0,4,2020-12-18_15h03.19.814,premce3DEU_ses-02_part-01_label-phase1,2020.1.2,Win32,60,,,,,,,,,,,,,,,,,,,,
,,left,0,0.55614,0,[1],1,0,1,1,17,1,stimuli/grey_butterfly.png,stimuli/white_butterfly.png,1,stimuli/red_flower.png,stimuli/green_flower.png,stimuli/yellow_flower.png,stimuli/blue_flower.png,down,stimuli/objects/butterfly4.jpg,0,99,stimuli/grey_butterfly.png,1,4,2020-12-18_15h03.19.814,premce3DEU_ses-02_part-01_label-phase1,2020.1.2,Win32,60,,,,,,,,,,,,,,,,,,,,
,,right,1,0.49346,1,[1],1,0,2,2,0,1,stimuli/grey_butterfly.png,stimuli/white_butterfly.png,2,stimuli/green_flower.png,stimuli/red_flower.png,stimuli/yellow_flower.png,stimuli/blue_flower.png,right,stimuli/objects/tennisracket.jpg,1,99,stimuli/white_butterfly.png,0,4,2020-12-18_15h03.19.814,premce3DEU_ses-02_part-01_label-phase1,2020.1.2,Win32,60,,,,,,,,,,,,,,,,,,,,
,,down,0,0.607085,0,"[1,1]",1,0,3,3,3,1,stimuli/white_butterfly.png,stimuli/grey_butterfly.png,2,stimuli/green_flower.png,stimuli/blue_flower.png,stimuli/red_flower.png,stimuli/yellow_flower.png,left,stimuli/objects/cigar.jpg,0,99,stimuli/grey_butterfly.png,0,4,2020-12-18_15h03.19.814,premce3DEU_ses-02_part-01_label-phase1,2020.1.2,Win32,60,,,,,,,,,,,,,,,,,,,,
,,left,0,1.01932,0,"[1,1]",1,0,4,4,18,1,stimuli/grey_butterfly.png,stimuli/white_butterfly.png,2,stimuli/blue_flower.png,stimuli/yellow_flower.png,stimuli/green_flower.png,stimuli/red_flower.png,up,stimuli/objects/armadillo.jpg,0,99,stimuli/white_butterfly.png,1,4,2020-12-18_15h03.19.814,premce3DEU_ses-02_part-01_label-phase1,2020.1.2,Win32,60,,,,,,,,,,,,,,,,,,,,
,,left,0,1.64191,0,"[1,1]",1,0,5,5,13,1,stimuli/grey_butterfly.png,stimuli/white_butterfly.png,2,stimuli/blue_flower.png,stimuli/red_flower.png,stimuli/yellow_flower.png,stimuli/green_flower.png,up,stimuli/objects/payphone.jpg,0,99,stimuli/white_butterfly.png,1,4,2020-12-18_15h03.19.814,premce3DEU_ses-02_part-01_label-phase1,2020.1.2,Win32,60,,,,,,,,,,,,,,,,,,,,
,,right,1,1.262975,1,"[1,1]",1,0,6,6,4,1,stimuli/white_butterfly.png,stimuli/grey_butterfly.png,1,stimuli/green_flower.png,stimuli/red_flower.png,stimuli/yellow_flower.png,stimuli/blue_flower.png,right,stimuli/objects/tire.jpg,1,99,stimuli/white_butterfly.png,0,4,2020-12-18_15h03.19.814,premce3DEU_ses-02_part-01_label-phase1,2020.1.2,Win32,60,,,,,,,,,,,,,,,,,,,,
,,right,1,0.490835,1,"[1,1,1]",1,0,7,7,6,1,stimuli/grey_butterfly.png,stimuli/white_butterfly.png,1,stimuli/green_flower.png,stimuli/yellow_flower.png,stimuli/blue_flower.png,stimuli/red_flower.png,right,stimuli/objects/flipflop01b.jpg,1,99,stimuli/grey_butterfly.png,0,4,2020-12-18_15h03.19.814,premce3DEU_ses-02_part-01_label-phase1,2020.1.2,Win32,60,,,,,,,,,,,,,,,,,,,,
,,up,1,0.64181,1,"[1,1,1,1]",1,0,8,8,14,1,stimuli/grey_butterfly.png,stimuli/white_butterfly.png,1,stimuli/blue_flower.png,stimuli/red_flower.png,stimuli/yellow_flower.png,stimuli/green_flower.png,up,stimuli/objects/shed02.jpg,1,99,stimuli/grey_butterfly.png,1,4,2020-12-18_15h03.19.814,premce3DEU_ses-02_part-01_label-phase1,2020.1.2,Win32,60,,,,,,,,,,,,,,,,,,,,
,,left,1,0.58141,1,"[1,1,1,1,1]",1,0,9,9,15,1,stimuli/grey_butterfly.png,stimuli/white_butterfly.png,1,stimuli/red_flower.png,stimuli/yellow_flower.png,stimuli/blue_flower.png,stimuli/green_flower.png,left,stimuli/objects/wheat.jpg,1,99,stimuli/grey_butterfly.png,1,4,2020-12-18_15h03.19.814,premce3DEU_ses-02_part-01_label-phase1,2020.1.2,Win32,60,,,,,,,,,,,,,,,,,,,,
,,up,1,0.589365,1,"[1,1,1,1,1,1]",1,0,10,10,1,1,stimuli/white_butterfly.png,stimuli/grey_butterfly.png,2,stimuli/yellow_flower.png,stimuli/red_flower.png,stimuli/blue_flower.png,stimuli/green_flower.png,up,stimuli/objects/marble.jpg,1,99,stimuli/grey_butterfly.png,0,4,2020-12-18_15h03.19.814,premce3DEU_ses-02_part-01_label-phase1,2020.1.2,Win32,60,,,,,,,,,,,,,,,,,,,,
,,up,1,0.4463,1,"[1,1,1,1,1,1,1]",1,0,11,11,2,1,stimuli/white_butterfly.png,stimuli/grey_butterfly.png,2,stimuli/blue_flower.png,stimuli/red_flower.png,stimuli/yellow_flower.png,stimuli/green_flower.png,up,stimuli/objects/corn02.jpg,1,99,stimuli/grey_butterfly.png,0,4,2020-12-18_15h03.19.814,premce3DEU_ses-02_part-01_label-phase1,2020.1.2,Win32,60,,,,,,,,,,,,,,,,,,,,
,,left,1,0.320475,1,"[1,1,1,1,1,1,1,1]",1,0,12,12,9,1,stimuli/white_butterfly.png,stimuli/grey_butterfly.png,1,stimuli/blue_flower.png,stimuli/red_flower.png,stimuli/yellow_flower.png,stimuli/green_flower.png,left,stimuli/objects/skunk.jpg,1,99,stimuli/white_butterfly.png,0,4,2020-12-18_15h03.19.814,premce3DEU_ses-02_part-01_label-phase1,2020.1.2,Win32,60,,,,,,,,,,,,,,,,,,,,
,,up,1,0.38845,1,"[1,1,1,1,1,1,1,1,1]",1,0,13,13,19,1,stimuli/grey_butterfly.png,stimuli/white_butterfly.png,2,stimuli/yellow_flower.png,stimuli/blue_flower.png,stimuli/red_flower.png,stimuli/green_flower.png,up,stimuli/objects/motorcycle.jpg,1,99,stimuli/white_butterfly.png,1,4,2020-12-18_15h03.19.814,premce3DEU_ses-02_part-01_label-phase1,2020.1.2,Win32,60,,,,,,,,,,,,,,,,,,,,
,,right,1,0.841545,1,"[1,1,1,1,1,1,1,1,1,1]",1,0,14,14,16,1,stimuli/grey_butterfly.png,stimuli/white_butterfly.png,2,stimuli/red_flower.png,stimuli/yellow_flower.png,stimuli/green_flower.png,stimuli/blue_flower.png,right,stimuli/objects/foosballtable.jpg,1,99,stimuli/white_butterfly.png,1,4,2020-12-18_15h03.19.814,premce3DEU_ses-02_part-01_label-phase1,2020.1.2,Win32,60,,,,,,,,,,,,,,,,,,,,
,,down,0,0.70706,0,"[1,1,1,1,1,1,1,1,1,1,1]",1,0,15,15,10,1,stimuli/white_butterfly.png,stimuli/grey_butterfly.png,1,stimuli/green_flower.png,stimuli/yellow_flower.png,stimuli/blue_flower.png,stimuli/red_flower.png,left,stimuli/objects/anchor.jpg,0,99,stimuli/white_butterfly.png,0,4,2020-12-18_15h03.19.814,premce3DEU_ses-02_part-01_label-phase1,2020.1.2,Win32,60,,,,,,,,,,,,,,,,,,,,
,,right,0,0.5401,0,"[1,1,1,1,1,1,1,1,1,1,1]",1,0,16,16,11,1,stimuli/white_butterfly.png,stimuli/grey_butterfly.png,2,stimuli/blue_flower.png,stimuli/green_flower.png,stimuli/yellow_flower.png,stimuli/red_flower.png,left,stimuli/objects/bookshelf.jpg,0,99,stimuli/grey_butterfly.png,1,4,2020-12-18_15h03.19.814,premce3DEU_ses-02_part-01_label-phase1,2020.1.2,Win32,60,,,,,,,,,,,,,,,,,,,,
,,right,1,0.506845,1,"[1,1,1,1,1,1,1,1,1,1,1]",1,0,17,17,20,1,stimuli/white_butterfly.png,stimuli/grey_butterfly.png,2,stimuli/green_flower.png,stimuli/blue_flower.png,stimuli/yellow_flower.png,stimuli/red_flower.png,right,stimuli/objects/toucan.jpg,1,99,stimuli/grey_butterfly.png,1,4,2020-12-18_15h03.19.814,premce3DEU_ses-02_part-01_label-phase1,2020.1.2,Win32,60,,,,,,,,,,,,,,,,,,,,
,,left,1,0.46937,1,"[1,1,1,1,1,1,1,1,1,1,1,1]",1,0,18,18,8,1,stimuli/white_butterfly.png,stimuli/grey_butterfly.png,2,stimuli/red_flower.png,stimuli/blue_flower.png,stimuli/green_flower.png,stimuli/yellow_flower.png,left,stimuli/objects/shelf.jpg,1,99,stimuli/grey_butterfly.png,0,4,2020-12-18_15h03.19.814,premce3DEU_ses-02_part-01_label-phase1,2020.1.2,Win32,60,,,,,,,,,,,,,,,,,,,,
,,down,1,0.70555,1,"[1,1,1,1,1,1,1,1,1,1,1,1,1]",1,0,19,19,12,1,stimuli/white_butterfly.png,stimuli/grey_butterfly.png,1,stimuli/yellow_flower.png,stimuli/red_flower.png,stimuli/blue_flower.png,stimuli/green_flower.png,down,stimuli/objects/toolbox02.jpg,1,99,stimuli/white_butterfly.png,1,4,2020-12-18_15h03.19.814,premce3DEU_ses-02_part-01_label-phase1,2020.1.2,Win32,60,,,,,,,,,,,,,,,,,,,,
,,down,1,0.77192,1,"[1,1,1,1,1,1,1,1,1,1,1,1,1,1]",1,0,20,20,5,1,stimuli/white_butterfly.png,stimuli/grey_butterfly.png,1,stimuli/green_flower.png,stimuli/red_flower.png,stimuli/blue_flower.png,stimuli/yellow_flower.png,down,stimuli/objects/birdfeeder.jpg,1,99,stimuli/white_butterfly.png,0,4,2020-12-18_15h03.19.814,premce3DEU_ses-02_part-01_label-phase1,2020.1.2,Win32,60,,,,,,,,,,,,,,,,,,,,
,,,,,1,"[1,1,1,1,1,1,1,1,1,1,1,1,1,1,1]",1,,,,,,stimuli/white_butterfly.png,stimuli/grey_butterfly.png,1,stimuli/blue_flower.png,stimuli/red_flower.png,stimuli/green_flower.png,stimuli/yellow_flower.png,left,stimuli/objects/cashregister01.jpg,1,2,stimuli/white_butterfly.png,0,4,2020-12-18_15h03.19.814,premce3DEU_ses-02_part-01_label-phase1,2020.1.2,Win32,60,space,10.553855,space,0.84804,left,1,0.51924,0,0,0,0,1,,,,,,,,
,,,,,0,"[1,1,1,1,1,1,1,1,1,1,1,1,1,1,1,1]",1,,,,,,stimuli/grey_butterfly.png,stimuli/white_butterfly.png,2,stimuli/yellow_flower.png,stimuli/green_flower.png,stimuli/blue_flower.png,stimuli/red_flower.png,up,stimuli/objects/birdfeeder.jpg,0,2,stimuli/white_butterfly.png,0,4,2020-12-18_15h03.19.814,premce3DEU_ses-02_part-01_label-phase1,2020.1.2,Win32,60,,,,,down,0,0.886615,0,1,1,1,1,,,,,,,,
,,,,,0,"[1,1,1,1,1,1,1,1,1,1,1,1,1,1,1,1]",1,,,,,,stimuli/white_butterfly.png,stimuli/grey_butterfly.png,1,stimuli/green_flower.png,stimuli/blue_flower.png,stimuli/red_flower.png,stimuli/yellow_flower.png,down,stimuli/objects/microwave.jpg,0,2,stimuli/white_butterfly.png,0,4,2020-12-18_15h03.19.814,premce3DEU_ses-02_part-01_label-phase1,2020.1.2,Win32,60,,,,,left,0,0.389,0,2,2,2,1,,,,,,,,
,,,,,0,"[1,1,1,1,1,1,1,1,1,1,1,1,1,1,1,1]",1,,,,,,stimuli/grey_butterfly.png,stimuli/white_butterfly.png,1,stimuli/yellow_flower.png,stimuli/green_flower.png,stimuli/red_flower.png,stimuli/blue_flower.png,left,stimuli/objects/balcony02.jpg,0,2,stimuli/grey_butterfly.png,0,4,2020-12-18_15h03.19.814,premce3DEU_ses-02_part-01_label-phase1,2020.1.2,Win32,60,,,,,down,0,0.41093,0,3,3,3,1,,,,,,,,
,,,,,1,"[1,1,1,1,1,1,1,1,1,1,1,1,1,1,1,1]",1,,,,,,stimuli/grey_butterfly.png,stimuli/white_butterfly.png,2,stimuli/blue_flower.png,stimuli/red_flower.png,stimuli/yellow_flower.png,stimuli/green_flower.png,left,stimuli/objects/file.jpg,1,2,stimuli/white_butterfly.png,0,4,2020-12-18_15h03.19.814,premce3DEU_ses-02_part-01_label-phase1,2020.1.2,Win32,60,,,,,left,1,0.73091,0,4,4,4,1,,,,,,,,
,,,,,1,"[1,1,1,1,1,1,1,1,1,1,1,1,1,1,1,1,1]",1,,,,,,stimuli/white_butterfly.png,stimuli/grey_butterfly.png,2,stimuli/yellow_flower.png,stimuli/green_flower.png,stimuli/red_flower.png,stimuli/blue_flower.png,down,stimuli/objects/scalpel.jpg,1,2,stimuli/grey_butterfly.png,0,4,2020-12-18_15h03.19.814,premce3DEU_ses-02_part-01_label-phase1,2020.1.2,Win32,60,,,,,down,1,0.92822,0,5,5,5,1,,,,,,,,
,,,,,1,"[1,1,1,1,1,1,1,1,1,1,1,1,1,1,1,1,1,1]",1,,,,,,stimuli/white_butterfly.png,stimuli/grey_butterfly.png,1,stimuli/green_flower.png,stimuli/yellow_flower.png,stimuli/red_flower.png,stimuli/blue_flower.png,right,stimuli/objects/car.jpg,1,2,stimuli/white_butterfly.png,0,4,2020-12-18_15h03.19.814,premce3DEU_ses-02_part-01_label-phase1,2020.1.2,Win32,60,,,,,right,1,0.722665,0,6,6,6,1,,,,,,,,
,,,,,1,"[1,1,1,1,1,1,1,1,1,1,1,1,1,1,1,1,1,1,1]",1,,,,,,stimuli/white_butterfly.png,stimuli/grey_butterfly.png,1,stimuli/blue_flower.png,stimuli/yellow_flower.png,stimuli/green_flower.png,stimuli/red_flower.png,left,stimuli/objects/forklift.jpg,1,2,stimuli/white_butterfly.png,0,4,2020-12-18_15h03.19.814,premce3DEU_ses-02_part-01_label-phase1,2020.1.2,Win32,60,,,,,left,1,0.41465,0,7,7,7,1,,,,,,,,
,,,,,1,"[1,1,1,1,1,1,1,1,1,1,1,1,1,1,1,1,1,1,1,1]",1,,,,,,stimuli/white_butterfly.png,stimuli/grey_butterfly.png,1,stimuli/red_flower.png,stimuli/yellow_flower.png,stimuli/green_flower.png,stimuli/blue_flower.png,right,stimuli/objects/snowglobe.jpg,1,2,stimuli/white_butterfly.png,0,4,2020-12-18_15h03.19.814,premce3DEU_ses-02_part-01_label-phase1,2020.1.2,Win32,60,,,,,right,1,0.915695,0,8,8,8,1,,,,,,,,
,,,,,1,"[1,1,1,1,1,1,1,1,1,1,1,1,1,1,1,1,1,1,1,1,1]",1,,,,,,stimuli/grey_butterfly.png,stimuli/white_butterfly.png,1,stimuli/green_flower.png,stimuli/red_flower.png,stimuli/blue_flower.png,stimuli/yellow_flower.png,up,stimuli/objects/rollerblade.jpg,1,2,stimuli/grey_butterfly.png,0,4,2020-12-18_15h03.19.814,premce3DEU_ses-02_part-01_label-phase1,2020.1.2,Win32,60,,,,,up,1,0.370545,0,9,9,9,1,,,,,,,,
,,,,,1,"[1,1,1,1,1,1,1,1,1,1,1,1,1,1,1,1,1,1,1,1,1,1]",1,,,,,,stimuli/white_butterfly.png,stimuli/grey_butterfly.png,2,stimuli/green_flower.png,stimuli/blue_flower.png,stimuli/yellow_flower.png,stimuli/red_flower.png,right,stimuli/objects/treestump.jpg,1,2,stimuli/grey_butterfly.png,0,4,2020-12-18_15h03.19.814,premce3DEU_ses-02_part-01_label-phase1,2020.1.2,Win32,60,,,,,right,1,0.446875,0,10,10,10,1,,,,,,,,
,,,,,1,"[1,1,1,1,1,1,1,1,1,1,1,1,1,1,1,1,1,1,1,1,1,1,1]",1,,,,,,stimuli/grey_butterfly.png,stimuli/white_butterfly.png,2,stimuli/yellow_flower.png,stimuli/blue_flower.png,stimuli/red_flower.png,stimuli/green_flower.png,up,stimuli/objects/tricycle.jpg,1,2,stimuli/white_butterfly.png,0,4,2020-12-18_15h03.19.814,premce3DEU_ses-02_part-01_label-phase1,2020.1.2,Win32,60,,,,,up,1,0.543155,0,11,11,11,1,,,,,,,,
,,,,,1,"[1,1,1,1,1,1,1,1,1,1,1,1,1,1,1,1,1,1,1,1,1,1,1,1]",1,,,,,,stimuli/grey_butterfly.png,stimuli/white_butterfly.png,2,stimuli/green_flower.png,stimuli/red_flower.png,stimuli/blue_flower.png,stimuli/yellow_flower.png,down,stimuli/objects/beaver.jpg,1,2,stimuli/white_butterfly.png,0,4,2020-12-18_15h03.19.814,premce3DEU_ses-02_part-01_label-phase1,2020.1.2,Win32,60,,,,,down,1,0.674425,0,12,12,12,1,,,,,,,,
,,,,,1,"[1,1,1,1,1,1,1,1,1,1,1,1,1,1,1,1,1,1,1,1,1,1,1,1,1]",1,,,,,,stimuli/grey_butterfly.png,stimuli/white_butterfly.png,1,stimuli/green_flower.png,stimuli/yellow_flower.png,stimuli/red_flower.png,stimuli/blue_flower.png,down,stimuli/objects/fridge.jpg,1,2,stimuli/grey_butterfly.png,0,4,2020-12-18_15h03.19.814,premce3DEU_ses-02_part-01_label-phase1,2020.1.2,Win32,60,,,,,down,1,1.250975,0,13,13,13,1,,,,,,,,
,,,,,1,"[1,1,1,1,1,1,1,1,1,1,1,1,1,1,1,1,1,1,1,1,1,1,1,1,1,1]",1,,,,,,stimuli/grey_butterfly.png,stimuli/white_butterfly.png,1,stimuli/red_flower.png,stimuli/green_flower.png,stimuli/blue_flower.png,stimuli/yellow_flower.png,left,stimuli/objects/moon.jpg,1,2,stimuli/grey_butterfly.png,0,4,2020-12-18_15h03.19.814,premce3DEU_ses-02_part-01_label-phase1,2020.1.2,Win32,60,,,,,left,1,0.5513,0,14,14,14,1,,,,,,,,
,,,,,0,"[1,1,1,1,1,1,1,1,1,1,1,1,1,1,1,1,1,1,1,1,1,1,1,1,1,1,1]",1,,,,,,stimuli/white_butterfly.png,stimuli/grey_butterfly.png,2,stimuli/green_flower.png,stimuli/blue_flower.png,stimuli/red_flower.png,stimuli/yellow_flower.png,left,stimuli/objects/lionstatue.jpg,0,2,stimuli/grey_butterfly.png,0,4,2020-12-18_15h03.19.814,premce3DEU_ses-02_part-01_label-phase1,2020.1.2,Win32,60,,,,,down,0,0.54499,0,15,15,15,1,,,,,,,,
,,,,,1,"[1,1,1,1,1,1,1,1,1,1,1,1,1,1,1,1,1,1,1,1,1,1,1,1,1,1,1]",1,,,,,,stimuli/grey_butterfly.png,stimuli/white_butterfly.png,2,stimuli/blue_flower.png,stimuli/green_flower.png,stimuli/red_flower.png,stimuli/yellow_flower.png,left,stimuli/objects/bowlingpin.jpg,1,2,stimuli/white_butterfly.png,0,4,2020-12-18_15h03.19.814,premce3DEU_ses-02_part-01_label-phase1,2020.1.2,Win32,60,,,,,left,1,0.84304,0,16,16,16,1,,,,,,,,
,,,,,1,"[1,1,1,1,1,1,1,1,1,1,1,1,1,1,1,1,1,1,1,1,1,1,1,1,1,1,1,1]",1,,,,,,stimuli/grey_butterfly.png,stimuli/white_butterfly.png,2,stimuli/yellow_flower.png,stimuli/red_flower.png,stimuli/green_flower.png,stimuli/blue_flower.png,right,stimuli/objects/dolphin01.jpg,1,2,stimuli/white_butterfly.png,0,4,2020-12-18_15h03.19.814,premce3DEU_ses-02_part-01_label-phase1,2020.1.2,Win32,60,,,,,right,1,0.5805,0,17,17,17,1,,,,,,,,
,,,,,1,"[1,1,1,1,1,1,1,1,1,1,1,1,1,1,1,1,1,1,1,1,1,1,1,1,1,1,1,1,1]",1,,,,,,stimuli/white_butterfly.png,stimuli/grey_butterfly.png,1,stimuli/red_flower.png,stimuli/blue_flower.png,stimuli/yellow_flower.png,stimuli/green_flower.png,up,stimuli/objects/butterfly5.jpg,1,2,stimuli/white_butterfly.png,0,4,2020-12-18_15h03.19.814,premce3DEU_ses-02_part-01_label-phase1,2020.1.2,Win32,60,,,,,up,1,0.615445,0,18,18,18,1,,,,,,,,
,,,,,1,"[1,1,1,1,1,1,1,1,1,1,1,1,1,1,1,1,1,1,1,1,1,1,1,1,1,1,1,1,1,1]",1,,,,,,stimuli/grey_butterfly.png,stimuli/white_butterfly.png,1,stimuli/red_flower.png,stimuli/blue_flower.png,stimuli/green_flower.png,stimuli/yellow_flower.png,left,stimuli/objects/sandcastle.jpg,1,2,stimuli/grey_butterfly.png,0,4,2020-12-18_15h03.19.814,premce3DEU_ses-02_part-01_label-phase1,2020.1.2,Win32,60,,,,,left,1,0.73685,0,19,19,19,1,,,,,,,,
,,,,,0,"[1,1,1,1,1,1,1,1,1,1,1,1,1,1,1,1,1,1,1,1,1,1,1,1,1,1,1,1,1,1,1]",1,,,,,,stimuli/white_butterfly.png,stimuli/grey_butterfly.png,2,stimuli/blue_flower.png,stimuli/green_flower.png,stimuli/yellow_flower.png,stimuli/red_flower.png,left,stimuli/objects/winniethepooh.jpg,0,2,stimuli/grey_butterfly.png,0,4,2020-12-18_15h03.19.814,premce3DEU_ses-02_part-01_label-phase1,2020.1.2,Win32,60,,,,,right,0,0.489405,0,20,20,20,1,,,,,,,,
,,,,,1,"[1,1,1,1,1,1,1,1,1,1,1,1,1,1,1,1,1,1,1,1,1,1,1,1,1,1,1,1,1,1,1]",1,,,,,,stimuli/grey_butterfly.png,stimuli/white_butterfly.png,1,stimuli/green_flower.png,stimuli/blue_flower.png,stimuli/red_flower.png,stimuli/yellow_flower.png,down,stimuli/objects/mirror02.jpg,1,2,stimuli/grey_butterfly.png,1,4,2020-12-18_15h03.19.814,premce3DEU_ses-02_part-01_label-phase1,2020.1.2,Win32,60,,,,,down,1,0.53238,0,21,21,21,1,,,,,,,,
,,,,,1,"[1,1,1,1,1,1,1,1,1,1,1,1,1,1,1,1,1,1,1,1,1,1,1,1,1,1,1,1,1,1,1,1]",1,,,,,,stimuli/white_butterfly.png,stimuli/grey_butterfly.png,2,stimuli/yellow_flower.png,stimuli/red_flower.png,stimuli/green_flower.png,stimuli/blue_flower.png,up,stimuli/objects/bacon.jpg,1,2,stimuli/grey_butterfly.png,1,4,2020-12-18_15h03.19.814,premce3DEU_ses-02_part-01_label-phase1,2020.1.2,Win32,60,,,,,up,1,0.86076,0,22,22,22,1,,,,,,,,
,,,,,1,"[1,1,1,1,1,1,1,1,1,1,1,1,1,1,1,1,1,1,1,1,1,1,1,1,1,1,1,1,1,1,1,1,1]",1,,,,,,stimuli/grey_butterfly.png,stimuli/white_butterfly.png,1,stimuli/red_flower.png,stimuli/yellow_flower.png,stimuli/blue_flower.png,stimuli/green_flower.png,left,stimuli/objects/triangle.jpg,1,2,stimuli/grey_butterfly.png,1,4,2020-12-18_15h03.19.814,premce3DEU_ses-02_part-01_label-phase1,2020.1.2,Win32,60,,,,,left,1,0.37242,0,23,23,23,1,,,,,,,,
,,,,,0,"[1,1,1,1,1,1,1,1,1,1,1,1,1,1,1,1,1,1,1,1,1,1,1,1,1,1,1,1,1,1,1,1,1,1]",1,,,,,,stimuli/grey_butterfly.png,stimuli/white_butterfly.png,2,stimuli/red_flower.png,stimuli/green_flower.png,stimuli/yellow_flower.png,stimuli/blue_flower.png,down,stimuli/objects/chipmunk.jpg,0,2,stimuli/white_butterfly.png,1,4,2020-12-18_15h03.19.814,premce3DEU_ses-02_part-01_label-phase1,2020.1.2,Win32,60,,,,,right,0,0.42487,0,24,24,24,1,,,,,,,,
,,,,,1,"[1,1,1,1,1,1,1,1,1,1,1,1,1,1,1,1,1,1,1,1,1,1,1,1,1,1,1,1,1,1,1,1,1,1]",1,,,,,,stimuli/white_butterfly.png,stimuli/grey_butterfly.png,2,stimuli/red_flower.png,stimuli/blue_flower.png,stimuli/yellow_flower.png,stimuli/green_flower.png,left,stimuli/objects/jokercard.jpg,1,2,stimuli/grey_butterfly.png,1,4,2020-12-18_15h03.19.814,premce3DEU_ses-02_part-01_label-phase1,2020.1.2,Win32,60,,,,,left,1,1.11447,0,25,25,25,1,,,,,,,,
,,,,,1,"[1,1,1,1,1,1,1,1,1,1,1,1,1,1,1,1,1,1,1,1,1,1,1,1,1,1,1,1,1,1,1,1,1,1,1]",1,,,,,,stimuli/grey_butterfly.png,stimuli/white_butterfly.png,1,stimuli/yellow_flower.png,stimuli/blue_flower.png,stimuli/green_flower.png,stimuli/red_flower.png,right,stimuli/objects/bookshelf.jpg,1,2,stimuli/grey_butterfly.png,1,4,2020-12-18_15h03.19.814,premce3DEU_ses-02_part-01_label-phase1,2020.1.2,Win32,60,,,,,right,1,0.5596,0,26,26,26,1,,,,,,,,
,,,,,1,"[1,1,1,1,1,1,1,1,1,1,1,1,1,1,1,1,1,1,1,1,1,1,1,1,1,1,1,1,1,1,1,1,1,1,1,1]",1,,,,,,stimuli/white_butterfly.png,stimuli/grey_butterfly.png,2,stimuli/red_flower.png,stimuli/yellow_flower.png,stimuli/green_flower.png,stimuli/blue_flower.png,left,stimuli/objects/jeans01.jpg,1,2,stimuli/grey_butterfly.png,1,4,2020-12-18_15h03.19.814,premce3DEU_ses-02_part-01_label-phase1,2020.1.2,Win32,60,,,,,left,1,0.671855,0,27,27,27,1,,,,,,,,
,,,,,1,"[1,1,1,1,1,1,1,1,1,1,1,1,1,1,1,1,1,1,1,1,1,1,1,1,1,1,1,1,1,1,1,1,1,1,1,1,1]",1,,,,,,stimuli/grey_butterfly.png,stimuli/white_butterfly.png,2,stimuli/blue_flower.png,stimuli/red_flower.png,stimuli/green_flower.png,stimuli/yellow_flower.png,left,stimuli/objects/dogsled.jpg,1,2,stimuli/white_butterfly.png,1,4,2020-12-18_15h03.19.814,premce3DEU_ses-02_part-01_label-phase1,2020.1.2,Win32,60,,,,,left,1,0.456455,0,28,28,28,1,,,,,,,,
,,,,,1,"[1,1,1,1,1,1,1,1,1,1,1,1,1,1,1,1,1,1,1,1,1,1,1,1,1,1,1,1,1,1,1,1,1,1,1,1,1,1]",1,,,,,,stimuli/grey_butterfly.png,stimuli/white_butterfly.png,1,stimuli/green_flower.png,stimuli/red_flower.png,stimuli/yellow_flower.png,stimuli/blue_flower.png,up,stimuli/objects/artichoke01b.jpg,1,2,stimuli/grey_butterfly.png,1,4,2020-12-18_15h03.19.814,premce3DEU_ses-02_part-01_label-phase1,2020.1.2,Win32,60,,,,,up,1,0.65525,0,29,29,29,1,,,,,,,,
,,,,,1,"[1,1,1,1,1,1,1,1,1,1,1,1,1,1,1,1,1,1,1,1,1,1,1,1,1,1,1,1,1,1,1,1,1,1,1,1,1,1,1]",1,,,,,,stimuli/white_butterfly.png,stimuli/grey_butterfly.png,1,stimuli/green_flower.png,stimuli/red_flower.png,stimuli/yellow_flower.png,stimuli/blue_flower.png,right,stimuli/objects/gong.jpg,1,2,stimuli/white_butterfly.png,1,4,2020-12-18_15h03.19.814,premce3DEU_ses-02_part-01_label-phase1,2020.1.2,Win32,60,,,,,right,1,0.432845,0,30,30,30,1,,,,,,,,
,,,,,1,"[1,1,1,1,1,1,1,1,1,1,1,1,1,1,1,1,1,1,1,1,1,1,1,1,1,1,1,1,1,1,1,1,1,1,1,1,1,1,1,1]",1,,,,,,stimuli/white_butterfly.png,stimuli/grey_butterfly.png,2,stimuli/yellow_flower.png,stimuli/red_flower.png,stimuli/blue_flower.png,stimuli/green_flower.png,up,stimuli/objects/exitsign.jpg,1,2,stimuli/grey_butterfly.png,1,4,2020-12-18_15h03.19.814,premce3DEU_ses-02_part-01_label-phase1,2020.1.2,Win32,60,,,,,up,1,0.658255,0,31,31,31,1,,,,,,,,
,,,,,1,"[1,1,1,1,1,1,1,1,1,1,1,1,1,1,1,1,1,1,1,1,1,1,1,1,1,1,1,1,1,1,1,1,1,1,1,1,1,1,1,1,1]",1,,,,,,stimuli/grey_butterfly.png,stimuli/white_butterfly.png,2,stimuli/blue_flower.png,stimuli/yellow_flower.png,stimuli/green_flower.png,stimuli/red_flower.png,left,stimuli/objects/zebra.jpg,1,2,stimuli/white_butterfly.png,1,4,2020-12-18_15h03.19.814,premce3DEU_ses-02_part-01_label-phase1,2020.1.2,Win32,60,,,,,left,1,0.37628,0,32,32,32,1,,,,,,,,
,,,,,1,"[1,1,1,1,1,1,1,1,1,1,1,1,1,1,1,1,1,1,1,1,1,1,1,1,1,1,1,1,1,1,1,1,1,1,1,1,1,1,1,1,1,1]",1,,,,,,stimuli/grey_butterfly.png,stimuli/white_butterfly.png,1,stimuli/red_flower.png,stimuli/blue_flower.png,stimuli/yellow_flower.png,stimuli/green_flower.png,left,stimuli/objects/apron.jpg,1,2,stimuli/grey_butterfly.png,1,4,2020-12-18_15h03.19.814,premce3DEU_ses-02_part-01_label-phase1,2020.1.2,Win32,60,,,,,left,1,0.88853,0,33,33,33,1,,,,,,,,
,,,,,1,"[1,1,1,1,1,1,1,1,1,1,1,1,1,1,1,1,1,1,1,1,1,1,1,1,1,1,1,1,1,1,1,1,1,1,1,1,1,1,1,1,1,1,1]",1,,,,,,stimuli/grey_butterfly.png,stimuli/white_butterfly.png,2,stimuli/green_flower.png,stimuli/red_flower.png,stimuli/yellow_flower.png,stimuli/blue_flower.png,right,stimuli/objects/dalmatian.jpg,1,2,stimuli/white_butterfly.png,1,4,2020-12-18_15h03.19.814,premce3DEU_ses-02_part-01_label-phase1,2020.1.2,Win32,60,,,,,right,1,0.55361,0,34,34,34,1,,,,,,,,
,,,,,1,"[1,1,1,1,1,1,1,1,1,1,1,1,1,1,1,1,1,1,1,1,1,1,1,1,1,1,1,1,1,1,1,1,1,1,1,1,1,1,1,1,1,1,1,1]",1,,,,,,stimuli/grey_butterfly.png,stimuli/white_butterfly.png,1,stimuli/green_flower.png,stimuli/yellow_flower.png,stimuli/blue_flower.png,stimuli/red_flower.png,right,stimuli/objects/butterfly2.jpg,1,2,stimuli/grey_butterfly.png,1,4,2020-12-18_15h03.19.814,premce3DEU_ses-02_part-01_label-phase1,2020.1.2,Win32,60,,,,,right,1,0.71238,0,35,35,35,1,,,,,,,,
,,,,,1,"[1,1,1,1,1,1,1,1,1,1,1,1,1,1,1,1,1,1,1,1,1,1,1,1,1,1,1,1,1,1,1,1,1,1,1,1,1,1,1,1,1,1,1,1,1]",1,,,,,,stimuli/white_butterfly.png,stimuli/grey_butterfly.png,1,stimuli/blue_flower.png,stimuli/red_flower.png,stimuli/yellow_flower.png,stimuli/green_flower.png,left,stimuli/objects/whiteout.jpg,1,2,stimuli/white_butterfly.png,1,4,2020-12-18_15h03.19.814,premce3DEU_ses-02_part-01_label-phase1,2020.1.2,Win32,60,,,,,left,1,0.517955,0,36,36,36,1,,,,,,,,
,,,,,1,"[1,1,1,1,1,1,1,1,1,1,1,1,1,1,1,1,1,1,1,1,1,1,1,1,1,1,1,1,1,1,1,1,1,1,1,1,1,1,1,1,1,1,1,1,1,1]",1,,,,,,stimuli/grey_butterfly.png,stimuli/white_butterfly.png,2,stimuli/green_flower.png,stimuli/yellow_flower.png,stimuli/blue_flower.png,stimuli/red_flower.png,down,stimuli/objects/star.jpg,1,2,stimuli/white_butterfly.png,1,4,2020-12-18_15h03.19.814,premce3DEU_ses-02_part-01_label-phase1,2020.1.2,Win32,60,,,,,down,1,0.63592,0,37,37,37,1,,,,,,,,
,,,,,1,"[1,1,1,1,1,1,1,1,1,1,1,1,1,1,1,1,1,1,1,1,1,1,1,1,1,1,1,1,1,1,1,1,1,1,1,1,1,1,1,1,1,1,1,1,1,1,1]",1,,,,,,stimuli/grey_butterfly.png,stimuli/white_butterfly.png,2,stimuli/green_flower.png,stimuli/yellow_flower.png,stimuli/red_flower.png,stimuli/blue_flower.png,right,stimuli/objects/golfball.jpg,1,2,stimuli/white_butterfly.png,1,4,2020-12-18_15h03.19.814,premce3DEU_ses-02_part-01_label-phase1,2020.1.2,Win32,60,,,,,right,1,1.11477,0,38,38,38,1,,,,,,,,
,,,,,1,"[1,1,1,1,1,1,1,1,1,1,1,1,1,1,1,1,1,1,1,1,1,1,1,1,1,1,1,1,1,1,1,1,1,1,1,1,1,1,1,1,1,1,1,1,1,1,1,1]",1,,,,,,stimuli/white_butterfly.png,stimuli/grey_butterfly.png,2,stimuli/green_flower.png,stimuli/red_flower.png,stimuli/blue_flower.png,stimuli/yellow_flower.png,up,stimuli/objects/skateboard.jpg,1,2,stimuli/grey_butterfly.png,1,4,2020-12-18_15h03.19.814,premce3DEU_ses-02_part-01_label-phase1,2020.1.2,Win32,60,,,,,up,1,0.46461,0,39,39,39,1,,,,,,,,
,,,,,1,"[1,1,1,1,1,1,1,1,1,1,1,1,1,1,1,1,1,1,1,1,1,1,1,1,1,1,1,1,1,1,1,1,1,1,1,1,1,1,1,1,1,1,1,1,1,1,1,1,1]",1,,,,,,stimuli/grey_butterfly.png,stimuli/white_butterfly.png,1,stimuli/blue_flower.png,stimuli/yellow_flower.png,stimuli/green_flower.png,stimuli/red_flower.png,right,stimuli/objects/crab01.jpg,1,2,stimuli/grey_butterfly.png,1,4,2020-12-18_15h03.19.814,premce3DEU_ses-02_part-01_label-phase1,2020.1.2,Win32,60,,,,,right,1,0.456285,0,40,40,40,1,,,,,,,,
,,,,,1,"[1,1,1,1,1,1,1,1,1,1,1,1,1,1,1,1,1,1,1,1,1,1,1,1,1,1,1,1,1,1,1,1,1,1,1,1,1,1,1,1,1,1,1,1,1,1,1,1,1,1]",1,,,,,,stimuli/grey_butterfly.png,stimuli/white_butterfly.png,2,stimuli/green_flower.png,stimuli/blue_flower.png,stimuli/red_flower.png,stimuli/yellow_flower.png,up,stimuli/objects/snowman.jpg,1,2,stimuli/white_butterfly.png,1,4,2020-12-18_15h03.19.814,premce3DEU_ses-02_part-01_label-phase1,2020.1.2,Win32,60,,,,,up,1,0.83676,0,41,41,41,1,,,,,,,,
,,,,,,,,,,,,,,,,,,,,,,,,,,4,2020-12-18_15h03.19.814,premce3DEU_ses-02_part-01_label-phase1,2020.1.2,Win32,60,,,,,,,,,,,,,0,0,0,0,1,condition_files/tasklistAplus1.csv,,
,,,,,0,"[1,1,1,1,1,1,1,1,1,1,1,1,1,1,1,1,1,1,1,1,1,1,1,1,1,1,1,1,1,1,1,1,1,1,1,1,1,1,1,1,1,1,1,1,1,1,1,1,1,1,1]",0,,,,,,stimuli/grey_butterfly.png,stimuli/white_butterfly.png,2,stimuli/yellow_flower.png,stimuli/blue_flower.png,stimuli/red_flower.png,stimuli/green_flower.png,right,stimuli/objects/cork02.jpg,1,3,stimuli/white_butterfly.png,0,4,2020-12-18_15h03.19.814,premce3DEU_ses-02_part-01_label-phase1,2020.1.2,Win32,60,,,,,up,0,0.4463,0,0,0,0,1,,,,,,,,
,,,,,0,"[1,1,1,1,1,1,1,1,1,1,1,1,1,1,1,1,1,1,1,1,1,1,1,1,1,1,1,1,1,1,1,1,1,1,1,1,1,1,1,1,1,1,1,1,1,1,1,1,1,1,1,0]",0,,,,,,stimuli/white_butterfly.png,stimuli/grey_butterfly.png,1,stimuli/red_flower.png,stimuli/blue_flower.png,stimuli/yellow_flower.png,stimuli/green_flower.png,right,stimuli/objects/trombone.jpg,1,3,stimuli/white_butterfly.png,0,4,2020-12-18_15h03.19.814,premce3DEU_ses-02_part-01_label-phase1,2020.1.2,Win32,60,,,,,up,0,0.781565,0,1,1,1,1,,,,,,,,
,,,,,0,"[1,1,1,1,1,1,1,1,1,1,1,1,1,1,1,1,1,1,1,1,1,1,1,1,1,1,1,1,1,1,1,1,1,1,1,1,1,1,1,1,1,1,1,1,1,1,1,1,1,1,1,0,0]",0,,,,,,stimuli/white_butterfly.png,stimuli/grey_butterfly.png,2,stimuli/green_flower.png,stimuli/yellow_flower.png,stimuli/blue_flower.png,stimuli/red_flower.png,up,stimuli/objects/electricguitar01.jpg,1,3,stimuli/grey_butterfly.png,0,4,2020-12-18_15h03.19.814,premce3DEU_ses-02_part-01_label-phase1,2020.1.2,Win32,60,,,,,right,0,0.59303,0,2,2,2,1,,,,,,,,
,,,,,0,"[1,1,1,1,1,1,1,1,1,1,1,1,1,1,1,1,1,1,1,1,1,1,1,1,1,1,1,1,1,1,1,1,1,1,1,1,1,1,1,1,1,1,1,1,1,1,1,1,1,1,1,0,0,0]",0,,,,,,stimuli/white_butterfly.png,stimuli/grey_butterfly.png,1,stimuli/blue_flower.png,stimuli/red_flower.png,stimuli/yellow_flower.png,stimuli/green_flower.png,right,stimuli/objects/hockeypuck.jpg,1,3,stimuli/white_butterfly.png,0,4,2020-12-18_15h03.19.814,premce3DEU_ses-02_part-01_label-phase1,2020.1.2,Win32,60,,,,,left,0,1.689215,0,3,3,3,1,,,,,,,,
,,,,,0,"[1,1,1,1,1,1,1,1,1,1,1,1,1,1,1,1,1,1,1,1,1,1,1,1,1,1,1,1,1,1,1,1,1,1,1,1,1,1,1,1,1,1,1,1,1,1,1,1,1,1,1,0,0,0,0]",0,,,,,,stimuli/white_butterfly.png,stimuli/grey_butterfly.png,1,stimuli/yellow_flower.png,stimuli/green_flower.png,stimuli/blue_flower.png,stimuli/red_flower.png,left,stimuli/objects/windshieldwiper02.jpg,0,3,stimuli/white_butterfly.png,0,4,2020-12-18_15h03.19.814,premce3DEU_ses-02_part-01_label-phase1,2020.1.2,Win32,60,,,,,up,0,0.46759,0,4,4,4,1,,,,,,,,
,,,,,1,"[1,1,1,1,1,1,1,1,1,1,1,1,1,1,1,1,1,1,1,1,1,1,1,1,1,1,1,1,1,1,1,1,1,1,1,1,1,1,1,1,1,1,1,1,1,1,1,1,1,1,1,0,0,0,0]",1,,,,,,stimuli/white_butterfly.png,stimuli/grey_butterfly.png,2,stimuli/yellow_flower.png,stimuli/red_flower.png,stimuli/blue_flower.png,stimuli/green_flower.png,left,stimuli/objects/sailboat.jpg,1,3,stimuli/grey_butterfly.png,0,4,2020-12-18_15h03.19.814,premce3DEU_ses-02_part-01_label-phase1,2020.1.2,Win32,60,,,,,left,1,1.03229,0,5,5,5,1,,,,,,,,
,,,,,1,"[1,1,1,1,1,1,1,1,1,1,1,1,1,1,1,1,1,1,1,1,1,1,1,1,1,1,1,1,1,1,1,1,1,1,1,1,1,1,1,1,1,1,1,1,1,1,1,1,1,1,1,0,0,0,0,1]",1,,,,,,stimuli/grey_butterfly.png,stimuli/white_butterfly.png,2,stimuli/blue_flower.png,stimuli/yellow_flower.png,stimuli/green_flower.png,stimuli/red_flower.png,down,stimuli/objects/surfboard.jpg,1,3,stimuli/white_butterfly.png,0,4,2020-12-18_15h03.19.814,premce3DEU_ses-02_part-01_label-phase1,2020.1.2,Win32,60,,,,,down,1,1.00815,0,6,6,6,1,,,,,,,,
,,,,,1,"[1,1,1,1,1,1,1,1,1,1,1,1,1,1,1,1,1,1,1,1,1,1,1,1,1,1,1,1,1,1,1,1,1,1,1,1,1,1,1,1,1,1,1,1,1,1,1,1,1,1,1,0,0,0,0,1,1]",1,,,,,,stimuli/grey_butterfly.png,stimuli/white_butterfly.png,2,stimuli/blue_flower.png,stimuli/green_flower.png,stimuli/yellow_flower.png,stimuli/red_flower.png,up,stimuli/objects/desktopcomputer.jpg,1,3,stimuli/white_butterfly.png,0,4,2020-12-18_15h03.19.814,premce3DEU_ses-02_part-01_label-phase1,2020.1.2,Win32,60,,,,,up,1,0.442635,0,7,7,7,1,,,,,,,,
,,,,,1,"[1,1,1,1,1,1,1,1,1,1,1,1,1,1,1,1,1,1,1,1,1,1,1,1,1,1,1,1,1,1,1,1,1,1,1,1,1,1,1,1,1,1,1,1,1,1,1,1,1,1,1,0,0,0,0,1,1,1]",1,,,,,,stimuli/white_butterfly.png,stimuli/grey_butterfly.png,2,stimuli/blue_flower.png,stimuli/green_flower.png,stimuli/red_flower.png,stimuli/yellow_flower.png,right,stimuli/objects/baseballglove.jpg,1,3,stimuli/grey_butterfly.png,0,4,2020-12-18_15h03.19.814,premce3DEU_ses-02_part-01_label-phase1,2020.1.2,Win32,60,,,,,right,1,1.553955,0,8,8,8,1,,,,,,,,
,,,,,1,"[1,1,1,1,1,1,1,1,1,1,1,1,1,1,1,1,1,1,1,1,1,1,1,1,1,1,1,1,1,1,1,1,1,1,1,1,1,1,1,1,1,1,1,1,1,1,1,1,1,1,1,0,0,0,0,1,1,1,1]",1,,,,,,stimuli/grey_butterfly.png,stimuli/white_butterfly.png,2,stimuli/green_flower.png,stimuli/blue_flower.png,stimuli/yellow_flower.png,stimuli/red_flower.png,left,stimuli/objects/bolt01a.jpg,1,3,stimuli/white_butterfly.png,0,4,2020-12-18_15h03.19.814,premce3DEU_ses-02_part-01_label-phase1,2020.1.2,Win32,60,,,,,left,1,1.92374,0,9,9,9,1,,,,,,,,
,,,,,1,"[1,1,1,1,1,1,1,1,1,1,1,1,1,1,1,1,1,1,1,1,1,1,1,1,1,1,1,1,1,1,1,1,1,1,1,1,1,1,1,1,1,1,1,1,1,1,1,1,1,1,1,0,0,0,0,1,1,1,1,1]",1,,,,,,stimuli/white_butterfly.png,stimuli/grey_butterfly.png,2,stimuli/red_flower.png,stimuli/blue_flower.png,stimuli/yellow_flower.png,stimuli/green_flower.png,down,stimuli/objects/spicerack.jpg,1,3,stimuli/grey_butterfly.png,0,4,2020-12-18_15h03.19.814,premce3DEU_ses-02_part-01_label-phase1,2020.1.2,Win32,60,,,,,down,1,0.72363,0,10,10,10,1,,,,,,,,
,,,,,1,"[1,1,1,1,1,1,1,1,1,1,1,1,1,1,1,1,1,1,1,1,1,1,1,1,1,1,1,1,1,1,1,1,1,1,1,1,1,1,1,1,1,1,1,1,1,1,1,1,1,1,1,0,0,0,0,1,1,1,1,1,1]",1,,,,,,stimuli/grey_butterfly.png,stimuli/white_butterfly.png,2,stimuli/yellow_flower.png,stimuli/red_flower.png,stimuli/green_flower.png,stimuli/blue_flower.png,down,stimuli/objects/hockeystick.jpg,1,3,stimuli/white_butterfly.png,0,4,2020-12-18_15h03.19.814,premce3DEU_ses-02_part-01_label-phase1,2020.1.2,Win32,60,,,,,down,1,1.312015,0,11,11,11,1,,,,,,,,
,,,,,1,"[1,1,1,1,1,1,1,1,1,1,1,1,1,1,1,1,1,1,1,1,1,1,1,1,1,1,1,1,1,1,1,1,1,1,1,1,1,1,1,1,1,1,1,1,1,1,1,1,1,1,1,0,0,0,0,1,1,1,1,1,1,1]",1,,,,,,stimuli/white_butterfly.png,stimuli/grey_butterfly.png,2,stimuli/yellow_flower.png,stimuli/red_flower.png,stimuli/green_flower.png,stimuli/blue_flower.png,left,stimuli/objects/ipad02.jpg,1,3,stimuli/grey_butterfly.png,0,4,2020-12-18_15h03.19.814,premce3DEU_ses-02_part-01_label-phase1,2020.1.2,Win32,60,,,,,left,1,0.407265,0,12,12,12,1,,,,,,,,
,,,,,1,"[1,1,1,1,1,1,1,1,1,1,1,1,1,1,1,1,1,1,1,1,1,1,1,1,1,1,1,1,1,1,1,1,1,1,1,1,1,1,1,1,1,1,1,1,1,1,1,1,1,1,1,0,0,0,0,1,1,1,1,1,1,1,1]",1,,,,,,stimuli/grey_butterfly.png,stimuli/white_butterfly.png,1,stimuli/yellow_flower.png,stimuli/blue_flower.png,stimuli/red_flower.png,stimuli/green_flower.png,left,stimuli/objects/locomotive.jpg,1,3,stimuli/grey_butterfly.png,0,4,2020-12-18_15h03.19.814,premce3DEU_ses-02_part-01_label-phase1,2020.1.2,Win32,60,,,,,left,1,0.86083,0,13,13,13,1,,,,,,,,
,,,,,1,"[1,1,1,1,1,1,1,1,1,1,1,1,1,1,1,1,1,1,1,1,1,1,1,1,1,1,1,1,1,1,1,1,1,1,1,1,1,1,1,1,1,1,1,1,1,1,1,1,1,1,1,0,0,0,0,1,1,1,1,1,1,1,1,1]",1,,,,,,stimuli/white_butterfly.png,stimuli/grey_butterfly.png,2,stimuli/blue_flower.png,stimuli/red_flower.png,stimuli/green_flower.png,stimuli/yellow_flower.png,right,stimuli/objects/lintroller.jpg,1,3,stimuli/grey_butterfly.png,0,4,2020-12-18_15h03.19.814,premce3DEU_ses-02_part-01_label-phase1,2020.1.2,Win32,60,,,,,right,1,0.641405,0,14,14,14,1,,,,,,,,
,,,,,1,"[1,1,1,1,1,1,1,1,1,1,1,1,1,1,1,1,1,1,1,1,1,1,1,1,1,1,1,1,1,1,1,1,1,1,1,1,1,1,1,1,1,1,1,1,1,1,1,1,1,1,1,0,0,0,0,1,1,1,1,1,1,1,1,1,1]",1,,,,,,stimuli/grey_butterfly.png,stimuli/white_butterfly.png,2,stimuli/green_flower.png,stimuli/yellow_flower.png,stimuli/blue_flower.png,stimuli/red_flower.png,left,stimuli/objects/butterfly2.jpg,1,3,stimuli/white_butterfly.png,0,4,2020-12-18_15h03.19.814,premce3DEU_ses-02_part-01_label-phase1,2020.1.2,Win32,60,,,,,left,1,1.93576,0,15,15,15,1,,,,,,,,
,,,,,1,"[1,1,1,1,1,1,1,1,1,1,1,1,1,1,1,1,1,1,1,1,1,1,1,1,1,1,1,1,1,1,1,1,1,1,1,1,1,1,1,1,1,1,1,1,1,1,1,1,1,1,1,0,0,0,0,1,1,1,1,1,1,1,1,1,1,1]",1,,,,,,stimuli/white_butterfly.png,stimuli/grey_butterfly.png,1,stimuli/green_flower.png,stimuli/red_flower.png,stimuli/yellow_flower.png,stimuli/blue_flower.png,left,stimuli/objects/coffeemachine.jpg,1,3,stimuli/white_butterfly.png,0,4,2020-12-18_15h03.19.814,premce3DEU_ses-02_part-01_label-phase1,2020.1.2,Win32,60,,,,,left,1,0.482755,0,16,16,16,1,,,,,,,,
,,,,,0,"[1,1,1,1,1,1,1,1,1,1,1,1,1,1,1,1,1,1,1,1,1,1,1,1,1,1,1,1,1,1,1,1,1,1,1,1,1,1,1,1,1,1,1,1,1,1,1,1,1,1,1,0,0,0,0,1,1,1,1,1,1,1,1,1,1,1,1]",1,,,,,,stimuli/grey_butterfly.png,stimuli/white_butterfly.png,1,stimuli/blue_flower.png,stimuli/yellow_flower.png,stimuli/red_flower.png,stimuli/green_flower.png,down,stimuli/objects/lightswitch01.jpg,0,3,stimuli/grey_butterfly.png,0,4,2020-12-18_15h03.19.814,premce3DEU_ses-02_part-01_label-phase1,2020.1.2,Win32,60,,,,,up,0,1.18072,0,17,17,17,1,,,,,,,,
,,,,,1,"[1,1,1,1,1,1,1,1,1,1,1,1,1,1,1,1,1,1,1,1,1,1,1,1,1,1,1,1,1,1,1,1,1,1,1,1,1,1,1,1,1,1,1,1,1,1,1,1,1,1,1,0,0,0,0,1,1,1,1,1,1,1,1,1,1,1,1]",1,,,,,,stimuli/grey_butterfly.png,stimuli/white_butterfly.png,2,stimuli/green_flower.png,stimuli/red_flower.png,stimuli/yellow_flower.png,stimuli/blue_flower.png,left,stimuli/objects/asianelephant.jpg,1,3,stimuli/white_butterfly.png,0,4,2020-12-18_15h03.19.814,premce3DEU_ses-02_part-01_label-phase1,2020.1.2,Win32,60,,,,,left,1,1.26918,0,18,18,18,1,,,,,,,,
,,,,,1,"[1,1,1,1,1,1,1,1,1,1,1,1,1,1,1,1,1,1,1,1,1,1,1,1,1,1,1,1,1,1,1,1,1,1,1,1,1,1,1,1,1,1,1,1,1,1,1,1,1,1,1,0,0,0,0,1,1,1,1,1,1,1,1,1,1,1,1,1]",1,,,,,,stimuli/grey_butterfly.png,stimuli/white_butterfly.png,1,stimuli/yellow_flower.png,stimuli/red_flower.png,stimuli/green_flower.png,stimuli/blue_flower.png,left,stimuli/objects/showerhead01.jpg,1,3,stimuli/grey_butterfly.png,0,4,2020-12-18_15h03.19.814,premce3DEU_ses-02_part-01_label-phase1,2020.1.2,Win32,60,,,,,left,1,0.88176,0,19,19,19,1,,,,,,,,
,,,,,1,"[1,1,1,1,1,1,1,1,1,1,1,1,1,1,1,1,1,1,1,1,1,1,1,1,1,1,1,1,1,1,1,1,1,1,1,1,1,1,1,1,1,1,1,1,1,1,1,1,1,1,1,0,0,0,0,1,1,1,1,1,1,1,1,1,1,1,1,1,1]",1,,,,,,stimuli/white_butterfly.png,stimuli/grey_butterfly.png,1,stimuli/red_flower.png,stimuli/green_flower.png,stimuli/yellow_flower.png,stimuli/blue_flower.png,up,stimuli/objects/snowshovel.jpg,1,3,stimuli/white_butterfly.png,0,4,2020-12-18_15h03.19.814,premce3DEU_ses-02_part-01_label-phase1,2020.1.2,Win32,60,,,,,up,1,0.78644,0,20,20,20,1,,,,,,,,
,,,,,0,"[1,1,1,1,1,1,1,1,1,1,1,1,1,1,1,1,1,1,1,1,1,1,1,1,1,1,1,1,1,1,1,1,1,1,1,1,1,1,1,1,1,1,1,1,1,1,1,1,1,1,1,0,0,0,0,1,1,1,1,1,1,1,1,1,1,1,1,1,1,1]",1,,,,,,stimuli/grey_butterfly.png,stimuli/white_butterfly.png,1,stimuli/red_flower.png,stimuli/green_flower.png,stimuli/yellow_flower.png,stimuli/blue_flower.png,up,stimuli/objects/shower.jpg,0,3,stimuli/grey_butterfly.png,1,4,2020-12-18_15h03.19.814,premce3DEU_ses-02_part-01_label-phase1,2020.1.2,Win32,60,,,,,down,0,1.0875,0,21,21,21,1,,,,,,,,
,,,,,1,"[1,1,1,1,1,1,1,1,1,1,1,1,1,1,1,1,1,1,1,1,1,1,1,1,1,1,1,1,1,1,1,1,1,1,1,1,1,1,1,1,1,1,1,1,1,1,1,1,1,1,1,0,0,0,0,1,1,1,1,1,1,1,1,1,1,1,1,1,1,1]",1,,,,,,stimuli/white_butterfly.png,stimuli/grey_butterfly.png,1,stimuli/yellow_flower.png,stimuli/blue_flower.png,stimuli/green_flower.png,stimuli/red_flower.png,down,stimuli/objects/hulahoop.jpg,1,3,stimuli/white_butterfly.png,1,4,2020-12-18_15h03.19.814,premce3DEU_ses-02_part-01_label-phase1,2020.1.2,Win32,60,,,,,down,1,0.686885,0,22,22,22,1,,,,,,,,
,,,,,1,"[1,1,1,1,1,1,1,1,1,1,1,1,1,1,1,1,1,1,1,1,1,1,1,1,1,1,1,1,1,1,1,1,1,1,1,1,1,1,1,1,1,1,1,1,1,1,1,1,1,1,1,0,0,0,0,1,1,1,1,1,1,1,1,1,1,1,1,1,1,1,1]",1,,,,,,stimuli/grey_butterfly.png,stimuli/white_butterfly.png,1,stimuli/blue_flower.png,stimuli/red_flower.png,stimuli/yellow_flower.png,stimuli/green_flower.png,down,stimuli/objects/gps.jpg,1,3,stimuli/grey_butterfly.png,1,4,2020-12-18_15h03.19.814,premce3DEU_ses-02_part-01_label-phase1,2020.1.2,Win32,60,,,,,down,1,1.593215,0,23,23,23,1,,,,,,,,
,,,,,1,"[1,1,1,1,1,1,1,1,1,1,1,1,1,1,1,1,1,1,1,1,1,1,1,1,1,1,1,1,1,1,1,1,1,1,1,1,1,1,1,1,1,1,1,1,1,1,1,1,1,1,1,0,0,0,0,1,1,1,1,1,1,1,1,1,1,1,1,1,1,1,1,1]",1,,,,,,stimuli/white_butterfly.png,stimuli/grey_butterfly.png,2,stimuli/green_flower.png,stimuli/red_flower.png,stimuli/yellow_flower.png,stimuli/blue_flower.png,down,stimuli/objects/treadmill.jpg,1,3,stimuli/grey_butterfly.png,1,4,2020-12-18_15h03.19.814,premce3DEU_ses-02_part-01_label-phase1,2020.1.2,Win32,60,,,,,down,1,0.36861,0,24,24,24,1,,,,,,,,
,,,,,0,"[1,1,1,1,1,1,1,1,1,1,1,1,1,1,1,1,1,1,1,1,1,1,1,1,1,1,1,1,1,1,1,1,1,1,1,1,1,1,1,1,1,1,1,1,1,1,1,1,1,1,1,0,0,0,0,1,1,1,1,1,1,1,1,1,1,1,1,1,1,1,1,1,1]",0,,,,,,stimuli/grey_butterfly.png,stimuli/white_butterfly.png,2,stimuli/yellow_flower.png,stimuli/green_flower.png,stimuli/blue_flower.png,stimuli/red_flower.png,down,stimuli/objects/sausage.jpg,0,3,stimuli/white_butterfly.png,1,4,2020-12-18_15h03.19.814,premce3DEU_ses-02_part-01_label-phase1,2020.1.2,Win32,60,,,,,,0,,0,25,25,25,1,,,,,,,,
,,,,,0,"[1,1,1,1,1,1,1,1,1,1,1,1,1,1,1,1,1,1,1,1,1,1,1,1,1,1,1,1,1,1,1,1,1,1,1,1,1,1,1,1,1,1,1,1,1,1,1,1,1,1,1,0,0,0,0,1,1,1,1,1,1,1,1,1,1,1,1,1,1,1,1,1,1]",0,,,,,,stimuli/white_butterfly.png,stimuli/grey_butterfly.png,2,stimuli/blue_flower.png,stimuli/green_flower.png,stimuli/yellow_flower.png,stimuli/red_flower.png,left,stimuli/objects/barrel01.jpg,0,3,stimuli/grey_butterfly.png,1,4,2020-12-18_15h03.19.814,premce3DEU_ses-02_part-01_label-phase1,2020.1.2,Win32,60,,,,,down,0,1.473525,0,26,26,26,1,,,,,,,,
,,,,,0,"[1,1,1,1,1,1,1,1,1,1,1,1,1,1,1,1,1,1,1,1,1,1,1,1,1,1,1,1,1,1,1,1,1,1,1,1,1,1,1,1,1,1,1,1,1,1,1,1,1,1,1,0,0,0,0,1,1,1,1,1,1,1,1,1,1,1,1,1,1,1,1,1,1]",0,,,,,,stimuli/grey_butterfly.png,stimuli/white_butterfly.png,1,stimuli/green_flower.png,stimuli/red_flower.png,stimuli/blue_flower.png,stimuli/yellow_flower.png,right,stimuli/objects/tie02.jpg,1,3,stimuli/grey_butterfly.png,1,4,2020-12-18_15h03.19.814,premce3DEU_ses-02_part-01_label-phase1,2020.1.2,Win32,60,,,,,left,0,2.294115,0,27,27,27,1,,,,,,,,
,,,,,1,"[1,1,1,1,1,1,1,1,1,1,1,1,1,1,1,1,1,1,1,1,1,1,1,1,1,1,1,1,1,1,1,1,1,1,1,1,1,1,1,1,1,1,1,1,1,1,1,1,1,1,1,0,0,0,0,1,1,1,1,1,1,1,1,1,1,1,1,1,1,1,1,1,1,0]",1,,,,,,stimuli/white_butterfly.png,stimuli/grey_butterfly.png,1,stimuli/green_flower.png,stimuli/yellow_flower.png,stimuli/red_flower.png,stimuli/blue_flower.png,left,stimuli/objects/contactlens.jpg,1,3,stimuli/white_butterfly.png,1,4,2020-12-18_15h03.19.814,premce3DEU_ses-02_part-01_label-phase1,2020.1.2,Win32,60,,,,,left,1,0.50349,0,28,28,28,1,,,,,,,,
,,,,,1,"[1,1,1,1,1,1,1,1,1,1,1,1,1,1,1,1,1,1,1,1,1,1,1,1,1,1,1,1,1,1,1,1,1,1,1,1,1,1,1,1,1,1,1,1,1,1,1,1,1,1,1,0,0,0,0,1,1,1,1,1,1,1,1,1,1,1,1,1,1,1,1,1,1,0,1]",1,,,,,,stimuli/white_butterfly.png,stimuli/grey_butterfly.png,1,stimuli/blue_flower.png,stimuli/yellow_flower.png,stimuli/green_flower.png,stimuli/red_flower.png,down,stimuli/objects/wheelchair.jpg,1,3,stimuli/white_butterfly.png,1,4,2020-12-18_15h03.19.814,premce3DEU_ses-02_part-01_label-phase1,2020.1.2,Win32,60,,,,,down,1,0.498745,0,29,29,29,1,,,,,,,,
,,,,,1,"[1,1,1,1,1,1,1,1,1,1,1,1,1,1,1,1,1,1,1,1,1,1,1,1,1,1,1,1,1,1,1,1,1,1,1,1,1,1,1,1,1,1,1,1,1,1,1,1,1,1,1,0,0,0,0,1,1,1,1,1,1,1,1,1,1,1,1,1,1,1,1,1,1,0,1,1]",1,,,,,,stimuli/grey_butterfly.png,stimuli/white_butterfly.png,1,stimuli/red_flower.png,stimuli/yellow_flower.png,stimuli/blue_flower.png,stimuli/green_flower.png,up,stimuli/objects/cactus.jpg,1,3,stimuli/grey_butterfly.png,1,4,2020-12-18_15h03.19.814,premce3DEU_ses-02_part-01_label-phase1,2020.1.2,Win32,60,,,,,up,1,0.8935,0,30,30,30,1,,,,,,,,
,,,,,1,"[1,1,1,1,1,1,1,1,1,1,1,1,1,1,1,1,1,1,1,1,1,1,1,1,1,1,1,1,1,1,1,1,1,1,1,1,1,1,1,1,1,1,1,1,1,1,1,1,1,1,1,0,0,0,0,1,1,1,1,1,1,1,1,1,1,1,1,1,1,1,1,1,1,0,1,1,1]",1,,,,,,stimuli/grey_butterfly.png,stimuli/white_butterfly.png,2,stimuli/green_flower.png,stimuli/red_flower.png,stimuli/blue_flower.png,stimuli/yellow_flower.png,left,stimuli/objects/weddingcake.jpg,1,3,stimuli/white_butterfly.png,1,4,2020-12-18_15h03.19.814,premce3DEU_ses-02_part-01_label-phase1,2020.1.2,Win32,60,,,,,left,1,0.602995,0,31,31,31,1,,,,,,,,
,,,,,1,"[1,1,1,1,1,1,1,1,1,1,1,1,1,1,1,1,1,1,1,1,1,1,1,1,1,1,1,1,1,1,1,1,1,1,1,1,1,1,1,1,1,1,1,1,1,1,1,1,1,1,1,0,0,0,0,1,1,1,1,1,1,1,1,1,1,1,1,1,1,1,1,1,1,0,1,1,1,1]",1,,,,,,stimuli/white_butterfly.png,stimuli/grey_butterfly.png,1,stimuli/yellow_flower.png,stimuli/red_flower.png,stimuli/blue_flower.png,stimuli/green_flower.png,right,stimuli/objects/rockingchair.jpg,1,3,stimuli/white_butterfly.png,1,4,2020-12-18_15h03.19.814,premce3DEU_ses-02_part-01_label-phase1,2020.1.2,Win32,60,,,,,right,1,0.527595,0,32,32,32,1,,,,,,,,
,,,,,1,"[1,1,1,1,1,1,1,1,1,1,1,1,1,1,1,1,1,1,1,1,1,1,1,1,1,1,1,1,1,1,1,1,1,1,1,1,1,1,1,1,1,1,1,1,1,1,1,1,1,1,1,0,0,0,0,1,1,1,1,1,1,1,1,1,1,1,1,1,1,1,1,1,1,0,1,1,1,1,1]",1,,,,,,stimuli/grey_butterfly.png,stimuli/white_butterfly.png,1,stimuli/green_flower.png,stimuli/red_flower.png,stimuli/yellow_flower.png,stimuli/blue_flower.png,down,stimuli/objects/dartboard.jpg,1,3,stimuli/grey_butterfly.png,1,4,2020-12-18_15h03.19.814,premce3DEU_ses-02_part-01_label-phase1,2020.1.2,Win32,60,,,,,down,1,0.539525,0,33,33,33,1,,,,,,,,
,,,,,1,"[1,1,1,1,1,1,1,1,1,1,1,1,1,1,1,1,1,1,1,1,1,1,1,1,1,1,1,1,1,1,1,1,1,1,1,1,1,1,1,1,1,1,1,1,1,1,1,1,1,1,1,0,0,0,0,1,1,1,1,1,1,1,1,1,1,1,1,1,1,1,1,1,1,0,1,1,1,1,1,1]",1,,,,,,stimuli/grey_butterfly.png,stimuli/white_butterfly.png,2,stimuli/red_flower.png,stimuli/blue_flower.png,stimuli/yellow_flower.png,stimuli/green_flower.png,right,stimuli/objects/handbrush02.jpg,1,3,stimuli/white_butterfly.png,1,4,2020-12-18_15h03.19.814,premce3DEU_ses-02_part-01_label-phase1,2020.1.2,Win32,60,,,,,right,1,1.002135,0,34,34,34,1,,,,,,,,
,,,,,1,"[1,1,1,1,1,1,1,1,1,1,1,1,1,1,1,1,1,1,1,1,1,1,1,1,1,1,1,1,1,1,1,1,1,1,1,1,1,1,1,1,1,1,1,1,1,1,1,1,1,1,1,0,0,0,0,1,1,1,1,1,1,1,1,1,1,1,1,1,1,1,1,1,1,0,1,1,1,1,1,1,1]",1,,,,,,stimuli/grey_butterfly.png,stimuli/white_butterfly.png,1,stimuli/blue_flower.png,stimuli/green_flower.png,stimuli/red_flower.png,stimuli/yellow_flower.png,right,stimuli/objects/battleaxe.jpg,1,3,stimuli/grey_butterfly.png,1,4,2020-12-18_15h03.19.814,premce3DEU_ses-02_part-01_label-phase1,2020.1.2,Win32,60,,,,,right,1,0.863755,0,35,35,35,1,,,,,,,,
,,,,,1,"[1,1,1,1,1,1,1,1,1,1,1,1,1,1,1,1,1,1,1,1,1,1,1,1,1,1,1,1,1,1,1,1,1,1,1,1,1,1,1,1,1,1,1,1,1,1,1,1,1,1,1,0,0,0,0,1,1,1,1,1,1,1,1,1,1,1,1,1,1,1,1,1,1,0,1,1,1,1,1,1,1,1]",1,,,,,,stimuli/grey_butterfly.png,stimuli/white_butterfly.png,1,stimuli/blue_flower.png,stimuli/green_flower.png,stimuli/yellow_flower.png,stimuli/red_flower.png,down,stimuli/objects/cuttlefish.jpg,1,3,stimuli/grey_butterfly.png,1,4,2020-12-18_15h03.19.814,premce3DEU_ses-02_part-01_label-phase1,2020.1.2,Win32,60,,,,,down,1,0.49136,0,36,36,36,1,,,,,,,,
,,,,,1,"[1,1,1,1,1,1,1,1,1,1,1,1,1,1,1,1,1,1,1,1,1,1,1,1,1,1,1,1,1,1,1,1,1,1,1,1,1,1,1,1,1,1,1,1,1,1,1,1,1,1,1,0,0,0,0,1,1,1,1,1,1,1,1,1,1,1,1,1,1,1,1,1,1,0,1,1,1,1,1,1,1,1,1]",1,,,,,,stimuli/grey_butterfly.png,stimuli/white_butterfly.png,1,stimuli/green_flower.png,stimuli/blue_flower.png,stimuli/red_flower.png,stimuli/yellow_flower.png,right,stimuli/objects/butterfly4.jpg,1,3,stimuli/grey_butterfly.png,1,4,2020-12-18_15h03.19.814,premce3DEU_ses-02_part-01_label-phase1,2020.1.2,Win32,60,,,,,right,1,0.71926,0,37,37,37,1,,,,,,,,
,,,,,1,"[1,1,1,1,1,1,1,1,1,1,1,1,1,1,1,1,1,1,1,1,1,1,1,1,1,1,1,1,1,1,1,1,1,1,1,1,1,1,1,1,1,1,1,1,1,1,1,1,1,1,1,0,0,0,0,1,1,1,1,1,1,1,1,1,1,1,1,1,1,1,1,1,1,0,1,1,1,1,1,1,1,1,1,1]",1,,,,,,stimuli/grey_butterfly.png,stimuli/white_butterfly.png,2,stimuli/yellow_flower.png,stimuli/blue_flower.png,stimuli/green_flower.png,stimuli/red_flower.png,down,stimuli/objects/xylophone.jpg,1,3,stimuli/white_butterfly.png,1,4,2020-12-18_15h03.19.814,premce3DEU_ses-02_part-01_label-phase1,2020.1.2,Win32,60,,,,,down,1,0.64354,0,38,38,38,1,,,,,,,,
,,,,,0,"[1,1,1,1,1,1,1,1,1,1,1,1,1,1,1,1,1,1,1,1,1,1,1,1,1,1,1,1,1,1,1,1,1,1,1,1,1,1,1,1,1,1,1,1,1,1,1,1,1,1,1,0,0,0,0,1,1,1,1,1,1,1,1,1,1,1,1,1,1,1,1,1,1,0,1,1,1,1,1,1,1,1,1,1,1]",1,,,,,,stimuli/white_butterfly.png,stimuli/grey_butterfly.png,1,stimuli/green_flower.png,stimuli/red_flower.png,stimuli/blue_flower.png,stimuli/yellow_flower.png,up,stimuli/objects/recyclingbin.jpg,0,3,stimuli/white_butterfly.png,1,4,2020-12-18_15h03.19.814,premce3DEU_ses-02_part-01_label-phase1,2020.1.2,Win32,60,,,,,left,0,1.259365,0,39,39,39,1,,,,,,,,
,,,,,1,"[1,1,1,1,1,1,1,1,1,1,1,1,1,1,1,1,1,1,1,1,1,1,1,1,1,1,1,1,1,1,1,1,1,1,1,1,1,1,1,1,1,1,1,1,1,1,1,1,1,1,1,0,0,0,0,1,1,1,1,1,1,1,1,1,1,1,1,1,1,1,1,1,1,0,1,1,1,1,1,1,1,1,1,1,1]",1,,,,,,stimuli/grey_butterfly.png,stimuli/white_butterfly.png,1,stimuli/green_flower.png,stimuli/yellow_flower.png,stimuli/red_flower.png,stimuli/blue_flower.png,up,stimuli/objects/coffeemaker.jpg,1,3,stimuli/grey_butterfly.png,1,4,2020-12-18_15h03.19.814,premce3DEU_ses-02_part-01_label-phase1,2020.1.2,Win32,60,,,,,up,1,0.470625,0,40,40,40,1,,,,,,,,
,,,,,1,"[1,1,1,1,1,1,1,1,1,1,1,1,1,1,1,1,1,1,1,1,1,1,1,1,1,1,1,1,1,1,1,1,1,1,1,1,1,1,1,1,1,1,1,1,1,1,1,1,1,1,1,0,0,0,0,1,1,1,1,1,1,1,1,1,1,1,1,1,1,1,1,1,1,0,1,1,1,1,1,1,1,1,1,1,1,1]",1,,,,,,stimuli/grey_butterfly.png,stimuli/white_butterfly.png,1,stimuli/red_flower.png,stimuli/green_flower.png,stimuli/blue_flower.png,stimuli/yellow_flower.png,right,stimuli/objects/bleachers.jpg,1,3,stimuli/grey_butterfly.png,1,4,2020-12-18_15h03.19.814,premce3DEU_ses-02_part-01_label-phase1,2020.1.2,Win32,60,,,,,right,1,0.396285,0,41,41,41,1,,,,,,,,
,,,,,,,,,,,,,,,,,,,,,,,,,,4,2020-12-18_15h03.19.814,premce3DEU_ses-02_part-01_label-phase1,2020.1.2,Win32,60,,,,,,,,,,,,,0,1,1,1,1,condition_files/tasklistB1.csv,,
,,,,,0,"[1,1,1,1,1,1,1,1,1,1,1,1,1,1,1,1,1,1,1,1,1,1,1,1,1,1,1,1,1,1,1,1,1,1,1,1,1,1,1,1,1,1,1,1,1,1,1,1,1,1,1,0,0,0,0,1,1,1,1,1,1,1,1,1,1,1,1,1,1,1,1,1,1,0,1,1,1,1,1,1,1,1,1,1,1,1,1]",0,,,,,,stimuli/white_butterfly.png,stimuli/grey_butterfly.png,1,stimuli/yellow_flower.png,stimuli/blue_flower.png,stimuli/green_flower.png,stimuli/red_flower.png,left,stimuli/objects/windturbine.jpg,1,4,stimuli/white_butterfly.png,0,4,2020-12-18_15h03.19.814,premce3DEU_ses-02_part-01_label-phase1,2020.1.2,Win32,60,,,,,down,0,0.43819,0,0,0,0,1,,,,,,,,
,,,,,0,"[1,1,1,1,1,1,1,1,1,1,1,1,1,1,1,1,1,1,1,1,1,1,1,1,1,1,1,1,1,1,1,1,1,1,1,1,1,1,1,1,1,1,1,1,1,1,1,1,1,1,1,0,0,0,0,1,1,1,1,1,1,1,1,1,1,1,1,1,1,1,1,1,1,0,1,1,1,1,1,1,1,1,1,1,1,1,1,0]",0,,,,,,stimuli/grey_butterfly.png,stimuli/white_butterfly.png,1,stimuli/red_flower.png,stimuli/yellow_flower.png,stimuli/green_flower.png,stimuli/blue_flower.png,right,stimuli/objects/seaturtle.jpg,1,4,stimuli/grey_butterfly.png,0,4,2020-12-18_15h03.19.814,premce3DEU_ses-02_part-01_label-phase1,2020.1.2,Win32,60,,,,,up,0,0.459725,0,1,1,1,1,,,,,,,,
,,,,,0,"[1,1,1,1,1,1,1,1,1,1,1,1,1,1,1,1,1,1,1,1,1,1,1,1,1,1,1,1,1,1,1,1,1,1,1,1,1,1,1,1,1,1,1,1,1,1,1,1,1,1,1,0,0,0,0,1,1,1,1,1,1,1,1,1,1,1,1,1,1,1,1,1,1,0,1,1,1,1,1,1,1,1,1,1,1,1,1,0,0]",0,,,,,,stimuli/white_butterfly.png,stimuli/grey_butterfly.png,2,stimuli/blue_flower.png,stimuli/red_flower.png,stimuli/yellow_flower.png,stimuli/green_flower.png,left,stimuli/objects/cannon.jpg,1,4,stimuli/grey_butterfly.png,0,4,2020-12-18_15h03.19.814,premce3DEU_ses-02_part-01_label-phase1,2020.1.2,Win32,60,,,,,down,0,1.012355,0,2,2,2,1,,,,,,,,
,,,,,0,"[1,1,1,1,1,1,1,1,1,1,1,1,1,1,1,1,1,1,1,1,1,1,1,1,1,1,1,1,1,1,1,1,1,1,1,1,1,1,1,1,1,1,1,1,1,1,1,1,1,1,1,0,0,0,0,1,1,1,1,1,1,1,1,1,1,1,1,1,1,1,1,1,1,0,1,1,1,1,1,1,1,1,1,1,1,1,1,0,0,0]",0,,,,,,stimuli/grey_butterfly.png,stimuli/white_butterfly.png,2,stimuli/blue_flower.png,stimuli/red_flower.png,stimuli/yellow_flower.png,stimuli/green_flower.png,down,stimuli/objects/stool01.jpg,1,4,stimuli/white_butterfly.png,0,4,2020-12-18_15h03.19.814,premce3DEU_ses-02_part-01_label-phase1,2020.1.2,Win32,60,,,,,right,0,1.37376,0,3,3,3,1,,,,,,,,
,,,,,0,"[1,1,1,1,1,1,1,1,1,1,1,1,1,1,1,1,1,1,1,1,1,1,1,1,1,1,1,1,1,1,1,1,1,1,1,1,1,1,1,1,1,1,1,1,1,1,1,1,1,1,1,0,0,0,0,1,1,1,1,1,1,1,1,1,1,1,1,1,1,1,1,1,1,0,1,1,1,1,1,1,1,1,1,1,1,1,1,0,0,0,0]",0,,,,,,stimuli/white_butterfly.png,stimuli/grey_butterfly.png,1,stimuli/blue_flower.png,stimuli/green_flower.png,stimuli/yellow_flower.png,stimuli/red_flower.png,down,stimuli/objects/cruiseship.jpg,1,4,stimuli/white_butterfly.png,0,4,2020-12-18_15h03.19.814,premce3DEU_ses-02_part-01_label-phase1,2020.1.2,Win32,60,,,,,up,0,1.590445,0,4,4,4,1,,,,,,,,
,,,,,1,"[1,1,1,1,1,1,1,1,1,1,1,1,1,1,1,1,1,1,1,1,1,1,1,1,1,1,1,1,1,1,1,1,1,1,1,1,1,1,1,1,1,1,1,1,1,1,1,1,1,1,1,0,0,0,0,1,1,1,1,1,1,1,1,1,1,1,1,1,1,1,1,1,1,0,1,1,1,1,1,1,1,1,1,1,1,1,1,0,0,0,0,0]",1,,,,,,stimuli/white_butterfly.png,stimuli/grey_butterfly.png,1,stimuli/red_flower.png,stimuli/blue_flower.png,stimuli/yellow_flower.png,stimuli/green_flower.png,down,stimuli/objects/escalator.jpg,1,4,stimuli/white_butterfly.png,0,4,2020-12-18_15h03.19.814,premce3DEU_ses-02_part-01_label-phase1,2020.1.2,Win32,60,,,,,down,1,1.13069,0,5,5,5,1,,,,,,,,
,,,,,1,"[1,1,1,1,1,1,1,1,1,1,1,1,1,1,1,1,1,1,1,1,1,1,1,1,1,1,1,1,1,1,1,1,1,1,1,1,1,1,1,1,1,1,1,1,1,1,1,1,1,1,1,0,0,0,0,1,1,1,1,1,1,1,1,1,1,1,1,1,1,1,1,1,1,0,1,1,1,1,1,1,1,1,1,1,1,1,1,0,0,0,0,0,1]",1,,,,,,stimuli/grey_butterfly.png,stimuli/white_butterfly.png,2,stimuli/green_flower.png,stimuli/red_flower.png,stimuli/blue_flower.png,stimuli/yellow_flower.png,right,stimuli/objects/fluorescentlightbulb.jpg,1,4,stimuli/white_butterfly.png,0,4,2020-12-18_15h03.19.814,premce3DEU_ses-02_part-01_label-phase1,2020.1.2,Win32,60,,,,,right,1,0.452575,0,6,6,6,1,,,,,,,,
,,,,,1,"[1,1,1,1,1,1,1,1,1,1,1,1,1,1,1,1,1,1,1,1,1,1,1,1,1,1,1,1,1,1,1,1,1,1,1,1,1,1,1,1,1,1,1,1,1,1,1,1,1,1,1,0,0,0,0,1,1,1,1,1,1,1,1,1,1,1,1,1,1,1,1,1,1,0,1,1,1,1,1,1,1,1,1,1,1,1,1,0,0,0,0,0,1,1]",1,,,,,,stimuli/white_butterfly.png,stimuli/grey_butterfly.png,2,stimuli/blue_flower.png,stimuli/yellow_flower.png,stimuli/green_flower.png,stimuli/red_flower.png,left,stimuli/objects/basketball01.jpg,1,4,stimuli/grey_butterfly.png,0,4,2020-12-18_15h03.19.814,premce3DEU_ses-02_part-01_label-phase1,2020.1.2,Win32,60,,,,,left,1,0.388305,0,7,7,7,1,,,,,,,,
,,,,,1,"[1,1,1,1,1,1,1,1,1,1,1,1,1,1,1,1,1,1,1,1,1,1,1,1,1,1,1,1,1,1,1,1,1,1,1,1,1,1,1,1,1,1,1,1,1,1,1,1,1,1,1,0,0,0,0,1,1,1,1,1,1,1,1,1,1,1,1,1,1,1,1,1,1,0,1,1,1,1,1,1,1,1,1,1,1,1,1,0,0,0,0,0,1,1,1]",1,,,,,,stimuli/white_butterfly.png,stimuli/grey_butterfly.png,2,stimuli/red_flower.png,stimuli/green_flower.png,stimuli/blue_flower.png,stimuli/yellow_flower.png,down,stimuli/objects/canoepaddle02.jpg,1,4,stimuli/grey_butterfly.png,0,4,2020-12-18_15h03.19.814,premce3DEU_ses-02_part-01_label-phase1,2020.1.2,Win32,60,,,,,down,1,0.61383,0,8,8,8,1,,,,,,,,
,,,,,0,"[1,1,1,1,1,1,1,1,1,1,1,1,1,1,1,1,1,1,1,1,1,1,1,1,1,1,1,1,1,1,1,1,1,1,1,1,1,1,1,1,1,1,1,1,1,1,1,1,1,1,1,0,0,0,0,1,1,1,1,1,1,1,1,1,1,1,1,1,1,1,1,1,1,0,1,1,1,1,1,1,1,1,1,1,1,1,1,0,0,0,0,0,1,1,1,1]",1,,,,,,stimuli/grey_butterfly.png,stimuli/white_butterfly.png,2,stimuli/blue_flower.png,stimuli/red_flower.png,stimuli/green_flower.png,stimuli/yellow_flower.png,left,stimuli/objects/handheldtelescope.jpg,0,4,stimuli/white_butterfly.png,0,4,2020-12-18_15h03.19.814,premce3DEU_ses-02_part-01_label-phase1,2020.1.2,Win32,60,,,,,right,0,1.57133,0,9,9,9,1,,,,,,,,
,,,,,1,"[1,1,1,1,1,1,1,1,1,1,1,1,1,1,1,1,1,1,1,1,1,1,1,1,1,1,1,1,1,1,1,1,1,1,1,1,1,1,1,1,1,1,1,1,1,1,1,1,1,1,1,0,0,0,0,1,1,1,1,1,1,1,1,1,1,1,1,1,1,1,1,1,1,0,1,1,1,1,1,1,1,1,1,1,1,1,1,0,0,0,0,0,1,1,1,1]",1,,,,,,stimuli/grey_butterfly.png,stimuli/white_butterfly.png,1,stimuli/yellow_flower.png,stimuli/green_flower.png,stimuli/red_flower.png,stimuli/blue_flower.png,left,stimuli/objects/witchhat.jpg,0,4,stimuli/grey_butterfly.png,0,4,2020-12-18_15h03.19.814,premce3DEU_ses-02_part-01_label-phase1,2020.1.2,Win32,60,,,,,left,1,1.819665,0,10,10,10,1,,,,,,,,
,,,,,0,"[1,1,1,1,1,1,1,1,1,1,1,1,1,1,1,1,1,1,1,1,1,1,1,1,1,1,1,1,1,1,1,1,1,1,1,1,1,1,1,1,1,1,1,1,1,1,1,1,1,1,1,0,0,0,0,1,1,1,1,1,1,1,1,1,1,1,1,1,1,1,1,1,1,0,1,1,1,1,1,1,1,1,1,1,1,1,1,0,0,0,0,0,1,1,1,1]",0,,,,,,stimuli/white_butterfly.png,stimuli/grey_butterfly.png,1,stimuli/green_flower.png,stimuli/yellow_flower.png,stimuli/red_flower.png,stimuli/blue_flower.png,up,stimuli/objects/stepladder.jpg,1,4,stimuli/white_butterfly.png,0,4,2020-12-18_15h03.19.814,premce3DEU_ses-02_part-01_label-phase1,2020.1.2,Win32,60,,,,,right,0,0.313095,0,11,11,11,1,,,,,,,,
,,,,,1,"[1,1,1,1,1,1,1,1,1,1,1,1,1,1,1,1,1,1,1,1,1,1,1,1,1,1,1,1,1,1,1,1,1,1,1,1,1,1,1,1,1,1,1,1,1,1,1,1,1,1,1,0,0,0,0,1,1,1,1,1,1,1,1,1,1,1,1,1,1,1,1,1,1,0,1,1,1,1,1,1,1,1,1,1,1,1,1,0,0,0,0,0,1,1,1,1,0]",1,,,,,,stimuli/grey_butterfly.png,stimuli/white_butterfly.png,1,stimuli/blue_flower.png,stimuli/red_flower.png,stimuli/yellow_flower.png,stimuli/green_flower.png,left,stimuli/objects/donut.jpg,1,4,stimuli/grey_butterfly.png,0,4,2020-12-18_15h03.19.814,premce3DEU_ses-02_part-01_label-phase1,2020.1.2,Win32,60,,,,,left,1,1.134345,0,12,12,12,1,,,,,,,,
,,,,,1,"[1,1,1,1,1,1,1,1,1,1,1,1,1,1,1,1,1,1,1,1,1,1,1,1,1,1,1,1,1,1,1,1,1,1,1,1,1,1,1,1,1,1,1,1,1,1,1,1,1,1,1,0,0,0,0,1,1,1,1,1,1,1,1,1,1,1,1,1,1,1,1,1,1,0,1,1,1,1,1,1,1,1,1,1,1,1,1,0,0,0,0,0,1,1,1,1,0,1]",1,,,,,,stimuli/grey_butterfly.png,stimuli/white_butterfly.png,2,stimuli/red_flower.png,stimuli/green_flower.png,stimuli/blue_flower.png,stimuli/yellow_flower.png,right,stimuli/objects/tulip02.jpg,1,4,stimuli/white_butterfly.png,0,4,2020-12-18_15h03.19.814,premce3DEU_ses-02_part-01_label-phase1,2020.1.2,Win32,60,,,,,right,1,0.408755,0,13,13,13,1,,,,,,,,
,,,,,1,"[1,1,1,1,1,1,1,1,1,1,1,1,1,1,1,1,1,1,1,1,1,1,1,1,1,1,1,1,1,1,1,1,1,1,1,1,1,1,1,1,1,1,1,1,1,1,1,1,1,1,1,0,0,0,0,1,1,1,1,1,1,1,1,1,1,1,1,1,1,1,1,1,1,0,1,1,1,1,1,1,1,1,1,1,1,1,1,0,0,0,0,0,1,1,1,1,0,1,1]",1,,,,,,stimuli/white_butterfly.png,stimuli/grey_butterfly.png,2,stimuli/blue_flower.png,stimuli/green_flower.png,stimuli/red_flower.png,stimuli/yellow_flower.png,left,stimuli/objects/pirateflag.jpg,1,4,stimuli/grey_butterfly.png,0,4,2020-12-18_15h03.19.814,premce3DEU_ses-02_part-01_label-phase1,2020.1.2,Win32,60,,,,,left,1,0.744475,0,14,14,14,1,,,,,,,,
,,,,,1,"[1,1,1,1,1,1,1,1,1,1,1,1,1,1,1,1,1,1,1,1,1,1,1,1,1,1,1,1,1,1,1,1,1,1,1,1,1,1,1,1,1,1,1,1,1,1,1,1,1,1,1,0,0,0,0,1,1,1,1,1,1,1,1,1,1,1,1,1,1,1,1,1,1,0,1,1,1,1,1,1,1,1,1,1,1,1,1,0,0,0,0,0,1,1,1,1,0,1,1,1]",1,,,,,,stimuli/white_butterfly.png,stimuli/grey_butterfly.png,2,stimuli/yellow_flower.png,stimuli/blue_flower.png,stimuli/red_flower.png,stimuli/green_flower.png,up,stimuli/objects/waterfountain02.jpg,1,4,stimuli/grey_butterfly.png,0,4,2020-12-18_15h03.19.814,premce3DEU_ses-02_part-01_label-phase1,2020.1.2,Win32,60,,,,,up,1,0.969345,0,15,15,15,1,,,,,,,,
,,,,,0,"[1,1,1,1,1,1,1,1,1,1,1,1,1,1,1,1,1,1,1,1,1,1,1,1,1,1,1,1,1,1,1,1,1,1,1,1,1,1,1,1,1,1,1,1,1,1,1,1,1,1,1,0,0,0,0,1,1,1,1,1,1,1,1,1,1,1,1,1,1,1,1,1,1,0,1,1,1,1,1,1,1,1,1,1,1,1,1,0,0,0,0,0,1,1,1,1,0,1,1,1,1]",1,,,,,,stimuli/grey_butterfly.png,stimuli/white_butterfly.png,1,stimuli/blue_flower.png,stimuli/yellow_flower.png,stimuli/red_flower.png,stimuli/green_flower.png,down,stimuli/objects/butterfly3.jpg,0,4,stimuli/grey_butterfly.png,0,4,2020-12-18_15h03.19.814,premce3DEU_ses-02_part-01_label-phase1,2020.1.2,Win32,60,,,,,up,0,0.98343,0,16,16,16,1,,,,,,,,
,,,,,0,"[1,1,1,1,1,1,1,1,1,1,1,1,1,1,1,1,1,1,1,1,1,1,1,1,1,1,1,1,1,1,1,1,1,1,1,1,1,1,1,1,1,1,1,1,1,1,1,1,1,1,1,0,0,0,0,1,1,1,1,1,1,1,1,1,1,1,1,1,1,1,1,1,1,0,1,1,1,1,1,1,1,1,1,1,1,1,1,0,0,0,0,0,1,1,1,1,0,1,1,1,1]",1,,,,,,stimuli/grey_butterfly.png,stimuli/white_butterfly.png,2,stimuli/yellow_flower.png,stimuli/blue_flower.png,stimuli/green_flower.png,stimuli/red_flower.png,right,stimuli/objects/salmon.jpg,0,4,stimuli/white_butterfly.png,0,4,2020-12-18_15h03.19.814,premce3DEU_ses-02_part-01_label-phase1,2020.1.2,Win32,60,,,,,left,0,1.228265,0,17,17,17,1,,,,,,,,
,,,,,0,"[1,1,1,1,1,1,1,1,1,1,1,1,1,1,1,1,1,1,1,1,1,1,1,1,1,1,1,1,1,1,1,1,1,1,1,1,1,1,1,1,1,1,1,1,1,1,1,1,1,1,1,0,0,0,0,1,1,1,1,1,1,1,1,1,1,1,1,1,1,1,1,1,1,0,1,1,1,1,1,1,1,1,1,1,1,1,1,0,0,0,0,0,1,1,1,1,0,1,1,1,1]",0,,,,,,stimuli/white_butterfly.png,stimuli/grey_butterfly.png,2,stimuli/yellow_flower.png,stimuli/green_flower.png,stimuli/red_flower.png,stimuli/blue_flower.png,right,stimuli/objects/tent.jpg,1,4,stimuli/grey_butterfly.png,0,4,2020-12-18_15h03.19.814,premce3DEU_ses-02_part-01_label-phase1,2020.1.2,Win32,60,,,,,left,0,1.255805,0,18,18,18,1,,,,,,,,
,,,,,1,"[1,1,1,1,1,1,1,1,1,1,1,1,1,1,1,1,1,1,1,1,1,1,1,1,1,1,1,1,1,1,1,1,1,1,1,1,1,1,1,1,1,1,1,1,1,1,1,1,1,1,1,0,0,0,0,1,1,1,1,1,1,1,1,1,1,1,1,1,1,1,1,1,1,0,1,1,1,1,1,1,1,1,1,1,1,1,1,0,0,0,0,0,1,1,1,1,0,1,1,1,1,0]",1,,,,,,stimuli/white_butterfly.png,stimuli/grey_butterfly.png,1,stimuli/green_flower.png,stimuli/red_flower.png,stimuli/blue_flower.png,stimuli/yellow_flower.png,right,stimuli/objects/barn.jpg,1,4,stimuli/white_butterfly.png,0,4,2020-12-18_15h03.19.814,premce3DEU_ses-02_part-01_label-phase1,2020.1.2,Win32,60,,,,,right,1,0.84966,0,19,19,19,1,,,,,,,,
,,,,,0,"[1,1,1,1,1,1,1,1,1,1,1,1,1,1,1,1,1,1,1,1,1,1,1,1,1,1,1,1,1,1,1,1,1,1,1,1,1,1,1,1,1,1,1,1,1,1,1,1,1,1,1,0,0,0,0,1,1,1,1,1,1,1,1,1,1,1,1,1,1,1,1,1,1,0,1,1,1,1,1,1,1,1,1,1,1,1,1,0,0,0,0,0,1,1,1,1,0,1,1,1,1,0,1]",1,,,,,,stimuli/white_butterfly.png,stimuli/grey_butterfly.png,2,stimuli/blue_flower.png,stimuli/green_flower.png,stimuli/yellow_flower.png,stimuli/red_flower.png,up,stimuli/objects/crown.jpg,0,4,stimuli/grey_butterfly.png,0,4,2020-12-18_15h03.19.814,premce3DEU_ses-02_part-01_label-phase1,2020.1.2,Win32,60,,,,,left,0,0.79001,0,20,20,20,1,,,,,,,,
,,,,,1,"[1,1,1,1,1,1,1,1,1,1,1,1,1,1,1,1,1,1,1,1,1,1,1,1,1,1,1,1,1,1,1,1,1,1,1,1,1,1,1,1,1,1,1,1,1,1,1,1,1,1,1,0,0,0,0,1,1,1,1,1,1,1,1,1,1,1,1,1,1,1,1,1,1,0,1,1,1,1,1,1,1,1,1,1,1,1,1,0,0,0,0,0,1,1,1,1,0,1,1,1,1,0,1]",1,,,,,,stimuli/white_butterfly.png,stimuli/grey_butterfly.png,2,stimuli/yellow_flower.png,stimuli/red_flower.png,stimuli/green_flower.png,stimuli/blue_flower.png,right,stimuli/objects/seagull.jpg,1,4,stimuli/grey_butterfly.png,1,4,2020-12-18_15h03.19.814,premce3DEU_ses-02_part-01_label-phase1,2020.1.2,Win32,60,,,,,right,1,0.444895,0,21,21,21,1,,,,,,,,
,,,,,1,"[1,1,1,1,1,1,1,1,1,1,1,1,1,1,1,1,1,1,1,1,1,1,1,1,1,1,1,1,1,1,1,1,1,1,1,1,1,1,1,1,1,1,1,1,1,1,1,1,1,1,1,0,0,0,0,1,1,1,1,1,1,1,1,1,1,1,1,1,1,1,1,1,1,0,1,1,1,1,1,1,1,1,1,1,1,1,1,0,0,0,0,0,1,1,1,1,0,1,1,1,1,0,1,1]",1,,,,,,stimuli/grey_butterfly.png,stimuli/white_butterfly.png,1,stimuli/red_flower.png,stimuli/blue_flower.png,stimuli/green_flower.png,stimuli/yellow_flower.png,up,stimuli/objects/bathtub.jpg,1,4,stimuli/grey_butterfly.png,1,4,2020-12-18_15h03.19.814,premce3DEU_ses-02_part-01_label-phase1,2020.1.2,Win32,60,,,,,up,1,1.302575,0,22,22,22,1,,,,,,,,
,,,,,1,"[1,1,1,1,1,1,1,1,1,1,1,1,1,1,1,1,1,1,1,1,1,1,1,1,1,1,1,1,1,1,1,1,1,1,1,1,1,1,1,1,1,1,1,1,1,1,1,1,1,1,1,0,0,0,0,1,1,1,1,1,1,1,1,1,1,1,1,1,1,1,1,1,1,0,1,1,1,1,1,1,1,1,1,1,1,1,1,0,0,0,0,0,1,1,1,1,0,1,1,1,1,0,1,1,1]",1,,,,,,stimuli/white_butterfly.png,stimuli/grey_butterfly.png,1,stimuli/red_flower.png,stimuli/green_flower.png,stimuli/blue_flower.png,stimuli/yellow_flower.png,right,stimuli/objects/brownsugar.jpg,1,4,stimuli/white_butterfly.png,1,4,2020-12-18_15h03.19.814,premce3DEU_ses-02_part-01_label-phase1,2020.1.2,Win32,60,,,,,right,1,0.739875,0,23,23,23,1,,,,,,,,
,,,,,1,"[1,1,1,1,1,1,1,1,1,1,1,1,1,1,1,1,1,1,1,1,1,1,1,1,1,1,1,1,1,1,1,1,1,1,1,1,1,1,1,1,1,1,1,1,1,1,1,1,1,1,1,0,0,0,0,1,1,1,1,1,1,1,1,1,1,1,1,1,1,1,1,1,1,0,1,1,1,1,1,1,1,1,1,1,1,1,1,0,0,0,0,0,1,1,1,1,0,1,1,1,1,0,1,1,1,1]",1,,,,,,stimuli/white_butterfly.png,stimuli/grey_butterfly.png,2,stimuli/blue_flower.png,stimuli/red_flower.png,stimuli/green_flower.png,stimuli/yellow_flower.png,left,stimuli/objects/pumpkin.jpg,1,4,stimuli/grey_butterfly.png,1,4,2020-12-18_15h03.19.814,premce3DEU_ses-02_part-01_label-phase1,2020.1.2,Win32,60,,,,,left,1,1.82623,0,24,24,24,1,,,,,,,,
,,,,,1,"[1,1,1,1,1,1,1,1,1,1,1,1,1,1,1,1,1,1,1,1,1,1,1,1,1,1,1,1,1,1,1,1,1,1,1,1,1,1,1,1,1,1,1,1,1,1,1,1,1,1,1,0,0,0,0,1,1,1,1,1,1,1,1,1,1,1,1,1,1,1,1,1,1,0,1,1,1,1,1,1,1,1,1,1,1,1,1,0,0,0,0,0,1,1,1,1,0,1,1,1,1,0,1,1,1,1,1]",1,,,,,,stimuli/grey_butterfly.png,stimuli/white_butterfly.png,1,stimuli/yellow_flower.png,stimuli/red_flower.png,stimuli/green_flower.png,stimuli/blue_flower.png,right,stimuli/objects/trophy01.jpg,1,4,stimuli/grey_butterfly.png,1,4,2020-12-18_15h03.19.814,premce3DEU_ses-02_part-01_label-phase1,2020.1.2,Win32,60,,,,,right,1,0.60732,0,25,25,25,1,,,,,,,,
,,,,,0,"[1,1,1,1,1,1,1,1,1,1,1,1,1,1,1,1,1,1,1,1,1,1,1,1,1,1,1,1,1,1,1,1,1,1,1,1,1,1,1,1,1,1,1,1,1,1,1,1,1,1,1,0,0,0,0,1,1,1,1,1,1,1,1,1,1,1,1,1,1,1,1,1,1,0,1,1,1,1,1,1,1,1,1,1,1,1,1,0,0,0,0,0,1,1,1,1,0,1,1,1,1,0,1,1,1,1,1,1]",0,,,,,,stimuli/grey_butterfly.png,stimuli/white_butterfly.png,1,stimuli/red_flower.png,stimuli/green_flower.png,stimuli/blue_flower.png,stimuli/yellow_flower.png,down,stimuli/objects/horse.jpg,1,4,stimuli/grey_butterfly.png,1,4,2020-12-18_15h03.19.814,premce3DEU_ses-02_part-01_label-phase1,2020.1.2,Win32,60,,,,,left,0,0.350095,0,26,26,26,1,,,,,,,,
,,,,,1,"[1,1,1,1,1,1,1,1,1,1,1,1,1,1,1,1,1,1,1,1,1,1,1,1,1,1,1,1,1,1,1,1,1,1,1,1,1,1,1,1,1,1,1,1,1,1,1,1,1,1,1,0,0,0,0,1,1,1,1,1,1,1,1,1,1,1,1,1,1,1,1,1,1,0,1,1,1,1,1,1,1,1,1,1,1,1,1,0,0,0,0,0,1,1,1,1,0,1,1,1,1,0,1,1,1,1,1,1,0]",1,,,,,,stimuli/white_butterfly.png,stimuli/grey_butterfly.png,1,stimuli/red_flower.png,stimuli/yellow_flower.png,stimuli/blue_flower.png,stimuli/green_flower.png,up,stimuli/objects/jackrabbit.jpg,1,4,stimuli/white_butterfly.png,1,4,2020-12-18_15h03.19.814,premce3DEU_ses-02_part-01_label-phase1,2020.1.2,Win32,60,,,,,up,1,0.657405,0,27,27,27,1,,,,,,,,
,,,,,1,"[1,1,1,1,1,1,1,1,1,1,1,1,1,1,1,1,1,1,1,1,1,1,1,1,1,1,1,1,1,1,1,1,1,1,1,1,1,1,1,1,1,1,1,1,1,1,1,1,1,1,1,0,0,0,0,1,1,1,1,1,1,1,1,1,1,1,1,1,1,1,1,1,1,0,1,1,1,1,1,1,1,1,1,1,1,1,1,0,0,0,0,0,1,1,1,1,0,1,1,1,1,0,1,1,1,1,1,1,0,1]",1,,,,,,stimuli/grey_butterfly.png,stimuli/white_butterfly.png,2,stimuli/green_flower.png,stimuli/yellow_flower.png,stimuli/red_flower.png,stimuli/blue_flower.png,up,stimuli/objects/jaguar.jpg,1,4,stimuli/white_butterfly.png,1,4,2020-12-18_15h03.19.814,premce3DEU_ses-02_part-01_label-phase1,2020.1.2,Win32,60,,,,,up,1,0.386155,0,28,28,28,1,,,,,,,,
,,,,,1,"[1,1,1,1,1,1,1,1,1,1,1,1,1,1,1,1,1,1,1,1,1,1,1,1,1,1,1,1,1,1,1,1,1,1,1,1,1,1,1,1,1,1,1,1,1,1,1,1,1,1,1,0,0,0,0,1,1,1,1,1,1,1,1,1,1,1,1,1,1,1,1,1,1,0,1,1,1,1,1,1,1,1,1,1,1,1,1,0,0,0,0,0,1,1,1,1,0,1,1,1,1,0,1,1,1,1,1,1,0,1,1]",1,,,,,,stimuli/white_butterfly.png,stimuli/grey_butterfly.png,1,stimuli/yellow_flower.png,stimuli/green_flower.png,stimuli/red_flower.png,stimuli/blue_flower.png,left,stimuli/objects/trafficlight.jpg,1,4,stimuli/white_butterfly.png,1,4,2020-12-18_15h03.19.814,premce3DEU_ses-02_part-01_label-phase1,2020.1.2,Win32,60,,,,,left,1,0.41273,0,29,29,29,1,,,,,,,,
,,,,,1,"[1,1,1,1,1,1,1,1,1,1,1,1,1,1,1,1,1,1,1,1,1,1,1,1,1,1,1,1,1,1,1,1,1,1,1,1,1,1,1,1,1,1,1,1,1,1,1,1,1,1,1,0,0,0,0,1,1,1,1,1,1,1,1,1,1,1,1,1,1,1,1,1,1,0,1,1,1,1,1,1,1,1,1,1,1,1,1,0,0,0,0,0,1,1,1,1,0,1,1,1,1,0,1,1,1,1,1,1,0,1,1,1]",1,,,,,,stimuli/white_butterfly.png,stimuli/grey_butterfly.png,1,stimuli/blue_flower.png,stimuli/green_flower.png,stimuli/red_flower.png,stimuli/yellow_flower.png,right,stimuli/objects/communitymailbox.jpg,1,4,stimuli/white_butterfly.png,1,4,2020-12-18_15h03.19.814,premce3DEU_ses-02_part-01_label-phase1,2020.1.2,Win32,60,,,,,right,1,0.434905,0,30,30,30,1,,,,,,,,
,,,,,0,"[1,1,1,1,1,1,1,1,1,1,1,1,1,1,1,1,1,1,1,1,1,1,1,1,1,1,1,1,1,1,1,1,1,1,1,1,1,1,1,1,1,1,1,1,1,1,1,1,1,1,1,0,0,0,0,1,1,1,1,1,1,1,1,1,1,1,1,1,1,1,1,1,1,0,1,1,1,1,1,1,1,1,1,1,1,1,1,0,0,0,0,0,1,1,1,1,0,1,1,1,1,0,1,1,1,1,1,1,0,1,1,1,1]",1,,,,,,stimuli/white_butterfly.png,stimuli/grey_butterfly.png,1,stimuli/green_flower.png,stimuli/red_flower.png,stimuli/yellow_flower.png,stimuli/blue_flower.png,left,stimuli/objects/table01.jpg,0,4,stimuli/white_butterfly.png,1,4,2020-12-18_15h03.19.814,premce3DEU_ses-02_part-01_label-phase1,2020.1.2,Win32,60,,,,,down,0,0.58218,0,31,31,31,1,,,,,,,,
,,,,,1,"[1,1,1,1,1,1,1,1,1,1,1,1,1,1,1,1,1,1,1,1,1,1,1,1,1,1,1,1,1,1,1,1,1,1,1,1,1,1,1,1,1,1,1,1,1,1,1,1,1,1,1,0,0,0,0,1,1,1,1,1,1,1,1,1,1,1,1,1,1,1,1,1,1,0,1,1,1,1,1,1,1,1,1,1,1,1,1,0,0,0,0,0,1,1,1,1,0,1,1,1,1,0,1,1,1,1,1,1,0,1,1,1,1]",1,,,,,,stimuli/grey_butterfly.png,stimuli/white_butterfly.png,2,stimuli/blue_flower.png,stimuli/green_flower.png,stimuli/yellow_flower.png,stimuli/red_flower.png,down,stimuli/objects/dromedary.jpg,1,4,stimuli/white_butterfly.png,1,4,2020-12-18_15h03.19.814,premce3DEU_ses-02_part-01_label-phase1,2020.1.2,Win32,60,,,,,down,1,0.4704,0,32,32,32,1,,,,,,,,
,,,,,1,"[1,1,1,1,1,1,1,1,1,1,1,1,1,1,1,1,1,1,1,1,1,1,1,1,1,1,1,1,1,1,1,1,1,1,1,1,1,1,1,1,1,1,1,1,1,1,1,1,1,1,1,0,0,0,0,1,1,1,1,1,1,1,1,1,1,1,1,1,1,1,1,1,1,0,1,1,1,1,1,1,1,1,1,1,1,1,1,0,0,0,0,0,1,1,1,1,0,1,1,1,1,0,1,1,1,1,1,1,0,1,1,1,1,1]",1,,,,,,stimuli/grey_butterfly.png,stimuli/white_butterfly.png,2,stimuli/yellow_flower.png,stimuli/green_flower.png,stimuli/blue_flower.png,stimuli/red_flower.png,left,stimuli/objects/duck01.jpg,1,4,stimuli/white_butterfly.png,1,4,2020-12-18_15h03.19.814,premce3DEU_ses-02_part-01_label-phase1,2020.1.2,Win32,60,,,,,left,1,0.68588,0,33,33,33,1,,,,,,,,
,,,,,1,"[1,1,1,1,1,1,1,1,1,1,1,1,1,1,1,1,1,1,1,1,1,1,1,1,1,1,1,1,1,1,1,1,1,1,1,1,1,1,1,1,1,1,1,1,1,1,1,1,1,1,1,0,0,0,0,1,1,1,1,1,1,1,1,1,1,1,1,1,1,1,1,1,1,0,1,1,1,1,1,1,1,1,1,1,1,1,1,0,0,0,0,0,1,1,1,1,0,1,1,1,1,0,1,1,1,1,1,1,0,1,1,1,1,1,1]",1,,,,,,stimuli/white_butterfly.png,stimuli/grey_butterfly.png,2,stimuli/green_flower.png,stimuli/blue_flower.png,stimuli/yellow_flower.png,stimuli/red_flower.png,up,stimuli/objects/soccerball.jpg,1,4,stimuli/grey_butterfly.png,1,4,2020-12-18_15h03.19.814,premce3DEU_ses-02_part-01_label-phase1,2020.1.2,Win32,60,,,,,up,1,1.337885,0,34,34,34,1,,,,,,,,
,,,,,1,"[1,1,1,1,1,1,1,1,1,1,1,1,1,1,1,1,1,1,1,1,1,1,1,1,1,1,1,1,1,1,1,1,1,1,1,1,1,1,1,1,1,1,1,1,1,1,1,1,1,1,1,0,0,0,0,1,1,1,1,1,1,1,1,1,1,1,1,1,1,1,1,1,1,0,1,1,1,1,1,1,1,1,1,1,1,1,1,0,0,0,0,0,1,1,1,1,0,1,1,1,1,0,1,1,1,1,1,1,0,1,1,1,1,1,1,1]",1,,,,,,stimuli/grey_butterfly.png,stimuli/white_butterfly.png,2,stimuli/yellow_flower.png,stimuli/red_flower.png,stimuli/green_flower.png,stimuli/blue_flower.png,left,stimuli/objects/butterfly2.jpg,1,4,stimuli/white_butterfly.png,1,4,2020-12-18_15h03.19.814,premce3DEU_ses-02_part-01_label-phase1,2020.1.2,Win32,60,,,,,left,1,1.236985,0,35,35,35,1,,,,,,,,
,,,,,1,"[1,1,1,1,1,1,1,1,1,1,1,1,1,1,1,1,1,1,1,1,1,1,1,1,1,1,1,1,1,1,1,1,1,1,1,1,1,1,1,1,1,1,1,1,1,1,1,1,1,1,1,0,0,0,0,1,1,1,1,1,1,1,1,1,1,1,1,1,1,1,1,1,1,0,1,1,1,1,1,1,1,1,1,1,1,1,1,0,0,0,0,0,1,1,1,1,0,1,1,1,1,0,1,1,1,1,1,1,0,1,1,1,1,1,1,1,1]",1,,,,,,stimuli/grey_butterfly.png,stimuli/white_butterfly.png,2,stimuli/yellow_flower.png,stimuli/blue_flower.png,stimuli/red_flower.png,stimuli/green_flower.png,left,stimuli/objects/football.jpg,1,4,stimuli/white_butterfly.png,1,4,2020-12-18_15h03.19.814,premce3DEU_ses-02_part-01_label-phase1,2020.1.2,Win32,60,,,,,left,1,0.719065,0,36,36,36,1,,,,,,,,
,,,,,1,"[1,1,1,1,1,1,1,1,1,1,1,1,1,1,1,1,1,1,1,1,1,1,1,1,1,1,1,1,1,1,1,1,1,1,1,1,1,1,1,1,1,1,1,1,1,1,1,1,1,1,1,0,0,0,0,1,1,1,1,1,1,1,1,1,1,1,1,1,1,1,1,1,1,0,1,1,1,1,1,1,1,1,1,1,1,1,1,0,0,0,0,0,1,1,1,1,0,1,1,1,1,0,1,1,1,1,1,1,0,1,1,1,1,1,1,1,1,1]",1,,,,,,stimuli/white_butterfly.png,stimuli/grey_butterfly.png,2,stimuli/red_flower.png,stimuli/yellow_flower.png,stimuli/green_flower.png,stimuli/blue_flower.png,right,stimuli/objects/polarbear.jpg,1,4,stimuli/grey_butterfly.png,1,4,2020-12-18_15h03.19.814,premce3DEU_ses-02_part-01_label-phase1,2020.1.2,Win32,60,,,,,right,1,0.414115,0,37,37,37,1,,,,,,,,
,,,,,1,"[1,1,1,1,1,1,1,1,1,1,1,1,1,1,1,1,1,1,1,1,1,1,1,1,1,1,1,1,1,1,1,1,1,1,1,1,1,1,1,1,1,1,1,1,1,1,1,1,1,1,1,0,0,0,0,1,1,1,1,1,1,1,1,1,1,1,1,1,1,1,1,1,1,0,1,1,1,1,1,1,1,1,1,1,1,1,1,0,0,0,0,0,1,1,1,1,0,1,1,1,1,0,1,1,1,1,1,1,0,1,1,1,1,1,1,1,1,1,1]",1,,,,,,stimuli/grey_butterfly.png,stimuli/white_butterfly.png,2,stimuli/blue_flower.png,stimuli/green_flower.png,stimuli/red_flower.png,stimuli/yellow_flower.png,right,stimuli/objects/monarchbutterfly.jpg,1,4,stimuli/white_butterfly.png,1,4,2020-12-18_15h03.19.814,premce3DEU_ses-02_part-01_label-phase1,2020.1.2,Win32,60,,,,,right,1,1.642755,0,38,38,38,1,,,,,,,,
,,,,,1,"[1,1,1,1,1,1,1,1,1,1,1,1,1,1,1,1,1,1,1,1,1,1,1,1,1,1,1,1,1,1,1,1,1,1,1,1,1,1,1,1,1,1,1,1,1,1,1,1,1,1,1,0,0,0,0,1,1,1,1,1,1,1,1,1,1,1,1,1,1,1,1,1,1,0,1,1,1,1,1,1,1,1,1,1,1,1,1,0,0,0,0,0,1,1,1,1,0,1,1,1,1,0,1,1,1,1,1,1,0,1,1,1,1,1,1,1,1,1,1,1]",1,,,,,,stimuli/white_butterfly.png,stimuli/grey_butterfly.png,2,stimuli/green_flower.png,stimuli/yellow_flower.png,stimuli/red_flower.png,stimuli/blue_flower.png,right,stimuli/objects/cymbal.jpg,1,4,stimuli/grey_butterfly.png,1,4,2020-12-18_15h03.19.814,premce3DEU_ses-02_part-01_label-phase1,2020.1.2,Win32,60,,,,,right,1,0.484795,0,39,39,39,1,,,,,,,,
,,,,,0,"[1,1,1,1,1,1,1,1,1,1,1,1,1,1,1,1,1,1,1,1,1,1,1,1,1,1,1,1,1,1,1,1,1,1,1,1,1,1,1,1,1,1,1,1,1,1,1,1,1,1,1,0,0,0,0,1,1,1,1,1,1,1,1,1,1,1,1,1,1,1,1,1,1,0,1,1,1,1,1,1,1,1,1,1,1,1,1,0,0,0,0,0,1,1,1,1,0,1,1,1,1,0,1,1,1,1,1,1,0,1,1,1,1,1,1,1,1,1,1,1,1]",0,,,,,,stimuli/grey_butterfly.png,stimuli/white_butterfly.png,1,stimuli/blue_flower.png,stimuli/yellow_flower.png,stimuli/green_flower.png,stimuli/red_flower.png,left,stimuli/objects/footballhelmet.jpg,1,4,stimuli/grey_butterfly.png,1,4,2020-12-18_15h03.19.814,premce3DEU_ses-02_part-01_label-phase1,2020.1.2,Win32,60,,,,,up,0,0.95421,0,40,40,40,1,,,,,,,,
,,,,,1,"[1,1,1,1,1,1,1,1,1,1,1,1,1,1,1,1,1,1,1,1,1,1,1,1,1,1,1,1,1,1,1,1,1,1,1,1,1,1,1,1,1,1,1,1,1,1,1,1,1,1,1,0,0,0,0,1,1,1,1,1,1,1,1,1,1,1,1,1,1,1,1,1,1,0,1,1,1,1,1,1,1,1,1,1,1,1,1,0,0,0,0,0,1,1,1,1,0,1,1,1,1,0,1,1,1,1,1,1,0,1,1,1,1,1,1,1,1,1,1,1,1,0]",1,,,,,,stimuli/white_butterfly.png,stimuli/grey_butterfly.png,2,stimuli/red_flower.png,stimuli/yellow_flower.png,stimuli/blue_flower.png,stimuli/green_flower.png,down,stimuli/objects/panda.jpg,1,4,stimuli/grey_butterfly.png,1,4,2020-12-18_15h03.19.814,premce3DEU_ses-02_part-01_label-phase1,2020.1.2,Win32,60,,,,,down,1,0.684395,0,41,41,41,1,,,,,,,,
,,,,,,,,,,,,,,,,,,,,,,,,,,4,2020-12-18_15h03.19.814,premce3DEU_ses-02_part-01_label-phase1,2020.1.2,Win32,60,,,,,,,,,,,,,0,2,2,2,1,condition_files/tasklistC1.csv,,
,,,,,0,"[1,1,1,1,1,1,1,1,1,1,1,1,1,1,1,1,1,1,1,1,1,1,1,1,1,1,1,1,1,1,1,1,1,1,1,1,1,1,1,1,1,1,1,1,1,1,1,1,1,1,1,0,0,0,0,1,1,1,1,1,1,1,1,1,1,1,1,1,1,1,1,1,1,0,1,1,1,1,1,1,1,1,1,1,1,1,1,0,0,0,0,0,1,1,1,1,0,1,1,1,1,0,1,1,1,1,1,1,0,1,1,1,1,1,1,1,1,1,1,1,1,0,1]",1,,,,,,stimuli/grey_butterfly.png,stimuli/white_butterfly.png,1,stimuli/red_flower.png,stimuli/green_flower.png,stimuli/yellow_flower.png,stimuli/blue_flower.png,down,stimuli/objects/giraffe.jpg,0,5,stimuli/grey_butterfly.png,0,4,2020-12-18_15h03.19.814,premce3DEU_ses-02_part-01_label-phase1,2020.1.2,Win32,60,,,,,right,0,1.948325,0,0,0,0,1,,,,,,,,
,,,,,0,"[1,1,1,1,1,1,1,1,1,1,1,1,1,1,1,1,1,1,1,1,1,1,1,1,1,1,1,1,1,1,1,1,1,1,1,1,1,1,1,1,1,1,1,1,1,1,1,1,1,1,1,0,0,0,0,1,1,1,1,1,1,1,1,1,1,1,1,1,1,1,1,1,1,0,1,1,1,1,1,1,1,1,1,1,1,1,1,0,0,0,0,0,1,1,1,1,0,1,1,1,1,0,1,1,1,1,1,1,0,1,1,1,1,1,1,1,1,1,1,1,1,0,1]",0,,,,,,stimuli/white_butterfly.png,stimuli/grey_butterfly.png,1,stimuli/yellow_flower.png,stimuli/red_flower.png,stimuli/blue_flower.png,stimuli/green_flower.png,up,stimuli/objects/beerbottle.jpg,1,5,stimuli/white_butterfly.png,0,4,2020-12-18_15h03.19.814,premce3DEU_ses-02_part-01_label-phase1,2020.1.2,Win32,60,,,,,left,0,1.03345,0,1,1,1,1,,,,,,,,
,,,,,0,"[1,1,1,1,1,1,1,1,1,1,1,1,1,1,1,1,1,1,1,1,1,1,1,1,1,1,1,1,1,1,1,1,1,1,1,1,1,1,1,1,1,1,1,1,1,1,1,1,1,1,1,0,0,0,0,1,1,1,1,1,1,1,1,1,1,1,1,1,1,1,1,1,1,0,1,1,1,1,1,1,1,1,1,1,1,1,1,0,0,0,0,0,1,1,1,1,0,1,1,1,1,0,1,1,1,1,1,1,0,1,1,1,1,1,1,1,1,1,1,1,1,0,1,0]",0,,,,,,stimuli/grey_butterfly.png,stimuli/white_butterfly.png,2,stimuli/green_flower.png,stimuli/yellow_flower.png,stimuli/red_flower.png,stimuli/blue_flower.png,down,stimuli/objects/eyepatch.jpg,1,5,stimuli/white_butterfly.png,0,4,2020-12-18_15h03.19.814,premce3DEU_ses-02_part-01_label-phase1,2020.1.2,Win32,60,,,,,up,0,0.90781,0,2,2,2,1,,,,,,,,
,,,,,0,"[1,1,1,1,1,1,1,1,1,1,1,1,1,1,1,1,1,1,1,1,1,1,1,1,1,1,1,1,1,1,1,1,1,1,1,1,1,1,1,1,1,1,1,1,1,1,1,1,1,1,1,0,0,0,0,1,1,1,1,1,1,1,1,1,1,1,1,1,1,1,1,1,1,0,1,1,1,1,1,1,1,1,1,1,1,1,1,0,0,0,0,0,1,1,1,1,0,1,1,1,1,0,1,1,1,1,1,1,0,1,1,1,1,1,1,1,1,1,1,1,1,0,1,0,0]",0,,,,,,stimuli/grey_butterfly.png,stimuli/white_butterfly.png,2,stimuli/green_flower.png,stimuli/blue_flower.png,stimuli/red_flower.png,stimuli/yellow_flower.png,down,stimuli/objects/jellyfish.jpg,1,5,stimuli/white_butterfly.png,0,4,2020-12-18_15h03.19.814,premce3DEU_ses-02_part-01_label-phase1,2020.1.2,Win32,60,,,,,up,0,1.08668,0,3,3,3,1,,,,,,,,
,,,,,1,"[1,1,1,1,1,1,1,1,1,1,1,1,1,1,1,1,1,1,1,1,1,1,1,1,1,1,1,1,1,1,1,1,1,1,1,1,1,1,1,1,1,1,1,1,1,1,1,1,1,1,1,0,0,0,0,1,1,1,1,1,1,1,1,1,1,1,1,1,1,1,1,1,1,0,1,1,1,1,1,1,1,1,1,1,1,1,1,0,0,0,0,0,1,1,1,1,0,1,1,1,1,0,1,1,1,1,1,1,0,1,1,1,1,1,1,1,1,1,1,1,1,0,1,0,0,0]",1,,,,,,stimuli/white_butterfly.png,stimuli/grey_butterfly.png,1,stimuli/blue_flower.png,stimuli/green_flower.png,stimuli/yellow_flower.png,stimuli/red_flower.png,right,stimuli/objects/aquarium.jpg,1,5,stimuli/white_butterfly.png,0,4,2020-12-18_15h03.19.814,premce3DEU_ses-02_part-01_label-phase1,2020.1.2,Win32,60,,,,,right,1,0.38864,0,4,4,4,1,,,,,,,,
,,,,,1,"[1,1,1,1,1,1,1,1,1,1,1,1,1,1,1,1,1,1,1,1,1,1,1,1,1,1,1,1,1,1,1,1,1,1,1,1,1,1,1,1,1,1,1,1,1,1,1,1,1,1,1,0,0,0,0,1,1,1,1,1,1,1,1,1,1,1,1,1,1,1,1,1,1,0,1,1,1,1,1,1,1,1,1,1,1,1,1,0,0,0,0,0,1,1,1,1,0,1,1,1,1,0,1,1,1,1,1,1,0,1,1,1,1,1,1,1,1,1,1,1,1,0,1,0,0,0,1]",1,,,,,,stimuli/white_butterfly.png,stimuli/grey_butterfly.png,1,stimuli/green_flower.png,stimuli/blue_flower.png,stimuli/red_flower.png,stimuli/yellow_flower.png,down,stimuli/objects/greywolf.jpg,1,5,stimuli/white_butterfly.png,0,4,2020-12-18_15h03.19.814,premce3DEU_ses-02_part-01_label-phase1,2020.1.2,Win32,60,,,,,down,1,0.550155,0,5,5,5,1,,,,,,,,
,,,,,1,"[1,1,1,1,1,1,1,1,1,1,1,1,1,1,1,1,1,1,1,1,1,1,1,1,1,1,1,1,1,1,1,1,1,1,1,1,1,1,1,1,1,1,1,1,1,1,1,1,1,1,1,0,0,0,0,1,1,1,1,1,1,1,1,1,1,1,1,1,1,1,1,1,1,0,1,1,1,1,1,1,1,1,1,1,1,1,1,0,0,0,0,0,1,1,1,1,0,1,1,1,1,0,1,1,1,1,1,1,0,1,1,1,1,1,1,1,1,1,1,1,1,0,1,0,0,0,1,1]",1,,,,,,stimuli/white_butterfly.png,stimuli/grey_butterfly.png,1,stimuli/green_flower.png,stimuli/yellow_flower.png,stimuli/blue_flower.png,stimuli/red_flower.png,right,stimuli/objects/fingerprint.jpg,1,5,stimuli/white_butterfly.png,0,4,2020-12-18_15h03.19.814,premce3DEU_ses-02_part-01_label-phase1,2020.1.2,Win32,60,,,,,right,1,0.40196,0,6,6,6,1,,,,,,,,
,,,,,0,"[1,1,1,1,1,1,1,1,1,1,1,1,1,1,1,1,1,1,1,1,1,1,1,1,1,1,1,1,1,1,1,1,1,1,1,1,1,1,1,1,1,1,1,1,1,1,1,1,1,1,1,0,0,0,0,1,1,1,1,1,1,1,1,1,1,1,1,1,1,1,1,1,1,0,1,1,1,1,1,1,1,1,1,1,1,1,1,0,0,0,0,0,1,1,1,1,0,1,1,1,1,0,1,1,1,1,1,1,0,1,1,1,1,1,1,1,1,1,1,1,1,0,1,0,0,0,1,1,1]",0,,,,,,stimuli/white_butterfly.png,stimuli/grey_butterfly.png,2,stimuli/green_flower.png,stimuli/blue_flower.png,stimuli/red_flower.png,stimuli/yellow_flower.png,down,stimuli/objects/doghouse.jpg,0,5,stimuli/grey_butterfly.png,0,4,2020-12-18_15h03.19.814,premce3DEU_ses-02_part-01_label-phase1,2020.1.2,Win32,60,,,,,,0,,0,7,7,7,1,,,,,,,,
,,,,,1,"[1,1,1,1,1,1,1,1,1,1,1,1,1,1,1,1,1,1,1,1,1,1,1,1,1,1,1,1,1,1,1,1,1,1,1,1,1,1,1,1,1,1,1,1,1,1,1,1,1,1,1,0,0,0,0,1,1,1,1,1,1,1,1,1,1,1,1,1,1,1,1,1,1,0,1,1,1,1,1,1,1,1,1,1,1,1,1,0,0,0,0,0,1,1,1,1,0,1,1,1,1,0,1,1,1,1,1,1,0,1,1,1,1,1,1,1,1,1,1,1,1,0,1,0,0,0,1,1,1]",1,,,,,,stimuli/grey_butterfly.png,stimuli/white_butterfly.png,2,stimuli/blue_flower.png,stimuli/green_flower.png,stimuli/red_flower.png,stimuli/yellow_flower.png,down,stimuli/objects/dreamcatcher.jpg,1,5,stimuli/white_butterfly.png,0,4,2020-12-18_15h03.19.814,premce3DEU_ses-02_part-01_label-phase1,2020.1.2,Win32,60,,,,,down,1,0.48837,0,8,8,8,1,,,,,,,,
,,,,,0,"[1,1,1,1,1,1,1,1,1,1,1,1,1,1,1,1,1,1,1,1,1,1,1,1,1,1,1,1,1,1,1,1,1,1,1,1,1,1,1,1,1,1,1,1,1,1,1,1,1,1,1,0,0,0,0,1,1,1,1,1,1,1,1,1,1,1,1,1,1,1,1,1,1,0,1,1,1,1,1,1,1,1,1,1,1,1,1,0,0,0,0,0,1,1,1,1,0,1,1,1,1,0,1,1,1,1,1,1,0,1,1,1,1,1,1,1,1,1,1,1,1,0,1,0,0,0,1,1,1,1]",0,,,,,,stimuli/white_butterfly.png,stimuli/grey_butterfly.png,2,stimuli/green_flower.png,stimuli/yellow_flower.png,stimuli/blue_flower.png,stimuli/red_flower.png,left,stimuli/objects/christmaslights.jpg,1,5,stimuli/grey_butterfly.png,0,4,2020-12-18_15h03.19.814,premce3DEU_ses-02_part-01_label-phase1,2020.1.2,Win32,60,,,,,right,0,0.44956,0,9,9,9,1,,,,,,,,
,,,,,0,"[1,1,1,1,1,1,1,1,1,1,1,1,1,1,1,1,1,1,1,1,1,1,1,1,1,1,1,1,1,1,1,1,1,1,1,1,1,1,1,1,1,1,1,1,1,1,1,1,1,1,1,0,0,0,0,1,1,1,1,1,1,1,1,1,1,1,1,1,1,1,1,1,1,0,1,1,1,1,1,1,1,1,1,1,1,1,1,0,0,0,0,0,1,1,1,1,0,1,1,1,1,0,1,1,1,1,1,1,0,1,1,1,1,1,1,1,1,1,1,1,1,0,1,0,0,0,1,1,1,1,0]",0,,,,,,stimuli/white_butterfly.png,stimuli/grey_butterfly.png,2,stimuli/green_flower.png,stimuli/red_flower.png,stimuli/blue_flower.png,stimuli/yellow_flower.png,left,stimuli/objects/porcupine.jpg,1,5,stimuli/grey_butterfly.png,0,4,2020-12-18_15h03.19.814,premce3DEU_ses-02_part-01_label-phase1,2020.1.2,Win32,60,,,,,up,0,0.519305,0,10,10,10,1,,,,,,,,
,,,,,1,"[1,1,1,1,1,1,1,1,1,1,1,1,1,1,1,1,1,1,1,1,1,1,1,1,1,1,1,1,1,1,1,1,1,1,1,1,1,1,1,1,1,1,1,1,1,1,1,1,1,1,1,0,0,0,0,1,1,1,1,1,1,1,1,1,1,1,1,1,1,1,1,1,1,0,1,1,1,1,1,1,1,1,1,1,1,1,1,0,0,0,0,0,1,1,1,1,0,1,1,1,1,0,1,1,1,1,1,1,0,1,1,1,1,1,1,1,1,1,1,1,1,0,1,0,0,0,1,1,1,1,0,0]",1,,,,,,stimuli/white_butterfly.png,stimuli/grey_butterfly.png,2,stimuli/blue_flower.png,stimuli/green_flower.png,stimuli/red_flower.png,stimuli/yellow_flower.png,up,stimuli/objects/volleyball.jpg,1,5,stimuli/grey_butterfly.png,0,4,2020-12-18_15h03.19.814,premce3DEU_ses-02_part-01_label-phase1,2020.1.2,Win32,60,,,,,up,1,0.433585,0,11,11,11,1,,,,,,,,
,,,,,1,"[1,1,1,1,1,1,1,1,1,1,1,1,1,1,1,1,1,1,1,1,1,1,1,1,1,1,1,1,1,1,1,1,1,1,1,1,1,1,1,1,1,1,1,1,1,1,1,1,1,1,1,0,0,0,0,1,1,1,1,1,1,1,1,1,1,1,1,1,1,1,1,1,1,0,1,1,1,1,1,1,1,1,1,1,1,1,1,0,0,0,0,0,1,1,1,1,0,1,1,1,1,0,1,1,1,1,1,1,0,1,1,1,1,1,1,1,1,1,1,1,1,0,1,0,0,0,1,1,1,1,0,0,1]",1,,,,,,stimuli/white_butterfly.png,stimuli/grey_butterfly.png,2,stimuli/red_flower.png,stimuli/yellow_flower.png,stimuli/green_flower.png,stimuli/blue_flower.png,down,stimuli/objects/cookingpot.jpg,1,5,stimuli/grey_butterfly.png,0,4,2020-12-18_15h03.19.814,premce3DEU_ses-02_part-01_label-phase1,2020.1.2,Win32,60,,,,,down,1,0.553145,0,12,12,12,1,,,,,,,,
,,,,,1,"[1,1,1,1,1,1,1,1,1,1,1,1,1,1,1,1,1,1,1,1,1,1,1,1,1,1,1,1,1,1,1,1,1,1,1,1,1,1,1,1,1,1,1,1,1,1,1,1,1,1,1,0,0,0,0,1,1,1,1,1,1,1,1,1,1,1,1,1,1,1,1,1,1,0,1,1,1,1,1,1,1,1,1,1,1,1,1,0,0,0,0,0,1,1,1,1,0,1,1,1,1,0,1,1,1,1,1,1,0,1,1,1,1,1,1,1,1,1,1,1,1,0,1,0,0,0,1,1,1,1,0,0,1,1]",1,,,,,,stimuli/grey_butterfly.png,stimuli/white_butterfly.png,2,stimuli/yellow_flower.png,stimuli/green_flower.png,stimuli/red_flower.png,stimuli/blue_flower.png,down,stimuli/objects/ironingboard01.jpg,1,5,stimuli/white_butterfly.png,0,4,2020-12-18_15h03.19.814,premce3DEU_ses-02_part-01_label-phase1,2020.1.2,Win32,60,,,,,down,1,0.623535,0,13,13,13,1,,,,,,,,
,,,,,1,"[1,1,1,1,1,1,1,1,1,1,1,1,1,1,1,1,1,1,1,1,1,1,1,1,1,1,1,1,1,1,1,1,1,1,1,1,1,1,1,1,1,1,1,1,1,1,1,1,1,1,1,0,0,0,0,1,1,1,1,1,1,1,1,1,1,1,1,1,1,1,1,1,1,0,1,1,1,1,1,1,1,1,1,1,1,1,1,0,0,0,0,0,1,1,1,1,0,1,1,1,1,0,1,1,1,1,1,1,0,1,1,1,1,1,1,1,1,1,1,1,1,0,1,0,0,0,1,1,1,1,0,0,1,1,1]",1,,,,,,stimuli/grey_butterfly.png,stimuli/white_butterfly.png,1,stimuli/blue_flower.png,stimuli/red_flower.png,stimuli/yellow_flower.png,stimuli/green_flower.png,right,stimuli/objects/filingcabinet.jpg,1,5,stimuli/grey_butterfly.png,0,4,2020-12-18_15h03.19.814,premce3DEU_ses-02_part-01_label-phase1,2020.1.2,Win32,60,,,,,right,1,0.52065,0,14,14,14,1,,,,,,,,
,,,,,1,"[1,1,1,1,1,1,1,1,1,1,1,1,1,1,1,1,1,1,1,1,1,1,1,1,1,1,1,1,1,1,1,1,1,1,1,1,1,1,1,1,1,1,1,1,1,1,1,1,1,1,1,0,0,0,0,1,1,1,1,1,1,1,1,1,1,1,1,1,1,1,1,1,1,0,1,1,1,1,1,1,1,1,1,1,1,1,1,0,0,0,0,0,1,1,1,1,0,1,1,1,1,0,1,1,1,1,1,1,0,1,1,1,1,1,1,1,1,1,1,1,1,0,1,0,0,0,1,1,1,1,0,0,1,1,1,1]",1,,,,,,stimuli/grey_butterfly.png,stimuli/white_butterfly.png,1,stimuli/green_flower.png,stimuli/red_flower.png,stimuli/yellow_flower.png,stimuli/blue_flower.png,left,stimuli/objects/butterfly2.jpg,1,5,stimuli/grey_butterfly.png,0,4,2020-12-18_15h03.19.814,premce3DEU_ses-02_part-01_label-phase1,2020.1.2,Win32,60,,,,,left,1,0.661175,0,15,15,15,1,,,,,,,,
,,,,,1,"[1,1,1,1,1,1,1,1,1,1,1,1,1,1,1,1,1,1,1,1,1,1,1,1,1,1,1,1,1,1,1,1,1,1,1,1,1,1,1,1,1,1,1,1,1,1,1,1,1,1,1,0,0,0,0,1,1,1,1,1,1,1,1,1,1,1,1,1,1,1,1,1,1,0,1,1,1,1,1,1,1,1,1,1,1,1,1,0,0,0,0,0,1,1,1,1,0,1,1,1,1,0,1,1,1,1,1,1,0,1,1,1,1,1,1,1,1,1,1,1,1,0,1,0,0,0,1,1,1,1,0,0,1,1,1,1,1]",1,,,,,,stimuli/grey_butterfly.png,stimuli/white_butterfly.png,1,stimuli/blue_flower.png,stimuli/green_flower.png,stimuli/red_flower.png,stimuli/yellow_flower.png,up,stimuli/objects/granolabar01.jpg,1,5,stimuli/grey_butterfly.png,0,4,2020-12-18_15h03.19.814,premce3DEU_ses-02_part-01_label-phase1,2020.1.2,Win32,60,,,,,up,1,0.40465,0,16,16,16,1,,,,,,,,
,,,,,1,"[1,1,1,1,1,1,1,1,1,1,1,1,1,1,1,1,1,1,1,1,1,1,1,1,1,1,1,1,1,1,1,1,1,1,1,1,1,1,1,1,1,1,1,1,1,1,1,1,1,1,1,0,0,0,0,1,1,1,1,1,1,1,1,1,1,1,1,1,1,1,1,1,1,0,1,1,1,1,1,1,1,1,1,1,1,1,1,0,0,0,0,0,1,1,1,1,0,1,1,1,1,0,1,1,1,1,1,1,0,1,1,1,1,1,1,1,1,1,1,1,1,0,1,0,0,0,1,1,1,1,0,0,1,1,1,1,1,1]",1,,,,,,stimuli/white_butterfly.png,stimuli/grey_butterfly.png,1,stimuli/green_flower.png,stimuli/red_flower.png,stimuli/yellow_flower.png,stimuli/blue_flower.png,up,stimuli/objects/redonion.jpg,1,5,stimuli/white_butterfly.png,0,4,2020-12-18_15h03.19.814,premce3DEU_ses-02_part-01_label-phase1,2020.1.2,Win32,60,,,,,up,1,1.611705,0,17,17,17,1,,,,,,,,
,,,,,0,"[1,1,1,1,1,1,1,1,1,1,1,1,1,1,1,1,1,1,1,1,1,1,1,1,1,1,1,1,1,1,1,1,1,1,1,1,1,1,1,1,1,1,1,1,1,1,1,1,1,1,1,0,0,0,0,1,1,1,1,1,1,1,1,1,1,1,1,1,1,1,1,1,1,0,1,1,1,1,1,1,1,1,1,1,1,1,1,0,0,0,0,0,1,1,1,1,0,1,1,1,1,0,1,1,1,1,1,1,0,1,1,1,1,1,1,1,1,1,1,1,1,0,1,0,0,0,1,1,1,1,0,0,1,1,1,1,1,1,1]",0,,,,,,stimuli/white_butterfly.png,stimuli/grey_butterfly.png,2,stimuli/yellow_flower.png,stimuli/blue_flower.png,stimuli/red_flower.png,stimuli/green_flower.png,right,stimuli/objects/cloud.jpg,1,5,stimuli/grey_butterfly.png,0,4,2020-12-18_15h03.19.814,premce3DEU_ses-02_part-01_label-phase1,2020.1.2,Win32,60,,,,,,0,,0,18,18,18,1,,,,,,,,
,,,,,1,"[1,1,1,1,1,1,1,1,1,1,1,1,1,1,1,1,1,1,1,1,1,1,1,1,1,1,1,1,1,1,1,1,1,1,1,1,1,1,1,1,1,1,1,1,1,1,1,1,1,1,1,0,0,0,0,1,1,1,1,1,1,1,1,1,1,1,1,1,1,1,1,1,1,0,1,1,1,1,1,1,1,1,1,1,1,1,1,0,0,0,0,0,1,1,1,1,0,1,1,1,1,0,1,1,1,1,1,1,0,1,1,1,1,1,1,1,1,1,1,1,1,0,1,0,0,0,1,1,1,1,0,0,1,1,1,1,1,1,1,0]",1,,,,,,stimuli/white_butterfly.png,stimuli/grey_butterfly.png,1,stimuli/blue_flower.png,stimuli/red_flower.png,stimuli/green_flower.png,stimuli/yellow_flower.png,up,stimuli/objects/chime.jpg,1,5,stimuli/white_butterfly.png,0,4,2020-12-18_15h03.19.814,premce3DEU_ses-02_part-01_label-phase1,2020.1.2,Win32,60,,,,,up,1,0.571145,0,19,19,19,1,,,,,,,,
,,,,,1,"[1,1,1,1,1,1,1,1,1,1,1,1,1,1,1,1,1,1,1,1,1,1,1,1,1,1,1,1,1,1,1,1,1,1,1,1,1,1,1,1,1,1,1,1,1,1,1,1,1,1,1,0,0,0,0,1,1,1,1,1,1,1,1,1,1,1,1,1,1,1,1,1,1,0,1,1,1,1,1,1,1,1,1,1,1,1,1,0,0,0,0,0,1,1,1,1,0,1,1,1,1,0,1,1,1,1,1,1,0,1,1,1,1,1,1,1,1,1,1,1,1,0,1,0,0,0,1,1,1,1,0,0,1,1,1,1,1,1,1,0,1]",1,,,,,,stimuli/grey_butterfly.png,stimuli/white_butterfly.png,1,stimuli/red_flower.png,stimuli/green_flower.png,stimuli/blue_flower.png,stimuli/yellow_flower.png,up,stimuli/objects/fishingrod.jpg,1,5,stimuli/grey_butterfly.png,0,4,2020-12-18_15h03.19.814,premce3DEU_ses-02_part-01_label-phase1,2020.1.2,Win32,60,,,,,up,1,0.50598,0,20,20,20,1,,,,,,,,
,,,,,1,"[1,1,1,1,1,1,1,1,1,1,1,1,1,1,1,1,1,1,1,1,1,1,1,1,1,1,1,1,1,1,1,1,1,1,1,1,1,1,1,1,1,1,1,1,1,1,1,1,1,1,1,0,0,0,0,1,1,1,1,1,1,1,1,1,1,1,1,1,1,1,1,1,1,0,1,1,1,1,1,1,1,1,1,1,1,1,1,0,0,0,0,0,1,1,1,1,0,1,1,1,1,0,1,1,1,1,1,1,0,1,1,1,1,1,1,1,1,1,1,1,1,0,1,0,0,0,1,1,1,1,0,0,1,1,1,1,1,1,1,0,1,1]",1,,,,,,stimuli/grey_butterfly.png,stimuli/white_butterfly.png,2,stimuli/blue_flower.png,stimuli/green_flower.png,stimuli/yellow_flower.png,stimuli/red_flower.png,right,stimuli/objects/fishskeleton.jpg,1,5,stimuli/white_butterfly.png,1,4,2020-12-18_15h03.19.814,premce3DEU_ses-02_part-01_label-phase1,2020.1.2,Win32,60,,,,,right,1,0.762595,0,21,21,21,1,,,,,,,,
,,,,,1,"[1,1,1,1,1,1,1,1,1,1,1,1,1,1,1,1,1,1,1,1,1,1,1,1,1,1,1,1,1,1,1,1,1,1,1,1,1,1,1,1,1,1,1,1,1,1,1,1,1,1,1,0,0,0,0,1,1,1,1,1,1,1,1,1,1,1,1,1,1,1,1,1,1,0,1,1,1,1,1,1,1,1,1,1,1,1,1,0,0,0,0,0,1,1,1,1,0,1,1,1,1,0,1,1,1,1,1,1,0,1,1,1,1,1,1,1,1,1,1,1,1,0,1,0,0,0,1,1,1,1,0,0,1,1,1,1,1,1,1,0,1,1,1]",1,,,,,,stimuli/grey_butterfly.png,stimuli/white_butterfly.png,1,stimuli/red_flower.png,stimuli/blue_flower.png,stimuli/green_flower.png,stimuli/yellow_flower.png,down,stimuli/objects/urinal.jpg,1,5,stimuli/grey_butterfly.png,1,4,2020-12-18_15h03.19.814,premce3DEU_ses-02_part-01_label-phase1,2020.1.2,Win32,60,,,,,down,1,0.98476,0,22,22,22,1,,,,,,,,
,,,,,1,"[1,1,1,1,1,1,1,1,1,1,1,1,1,1,1,1,1,1,1,1,1,1,1,1,1,1,1,1,1,1,1,1,1,1,1,1,1,1,1,1,1,1,1,1,1,1,1,1,1,1,1,0,0,0,0,1,1,1,1,1,1,1,1,1,1,1,1,1,1,1,1,1,1,0,1,1,1,1,1,1,1,1,1,1,1,1,1,0,0,0,0,0,1,1,1,1,0,1,1,1,1,0,1,1,1,1,1,1,0,1,1,1,1,1,1,1,1,1,1,1,1,0,1,0,0,0,1,1,1,1,0,0,1,1,1,1,1,1,1,0,1,1,1,1]",1,,,,,,stimuli/grey_butterfly.png,stimuli/white_butterfly.png,2,stimuli/yellow_flower.png,stimuli/red_flower.png,stimuli/blue_flower.png,stimuli/green_flower.png,up,stimuli/objects/key07.jpg,1,5,stimuli/white_butterfly.png,1,4,2020-12-18_15h03.19.814,premce3DEU_ses-02_part-01_label-phase1,2020.1.2,Win32,60,,,,,up,1,1.24231,0,23,23,23,1,,,,,,,,
,,,,,0,"[1,1,1,1,1,1,1,1,1,1,1,1,1,1,1,1,1,1,1,1,1,1,1,1,1,1,1,1,1,1,1,1,1,1,1,1,1,1,1,1,1,1,1,1,1,1,1,1,1,1,1,0,0,0,0,1,1,1,1,1,1,1,1,1,1,1,1,1,1,1,1,1,1,0,1,1,1,1,1,1,1,1,1,1,1,1,1,0,0,0,0,0,1,1,1,1,0,1,1,1,1,0,1,1,1,1,1,1,0,1,1,1,1,1,1,1,1,1,1,1,1,0,1,0,0,0,1,1,1,1,0,0,1,1,1,1,1,1,1,0,1,1,1,1,1]",1,,,,,,stimuli/white_butterfly.png,stimuli/grey_butterfly.png,2,stimuli/blue_flower.png,stimuli/green_flower.png,stimuli/yellow_flower.png,stimuli/red_flower.png,left,stimuli/objects/cremebrulee.jpg,0,5,stimuli/grey_butterfly.png,1,4,2020-12-18_15h03.19.814,premce3DEU_ses-02_part-01_label-phase1,2020.1.2,Win32,60,,,,,up,0,0.49514,0,24,24,24,1,,,,,,,,
,,,,,1,"[1,1,1,1,1,1,1,1,1,1,1,1,1,1,1,1,1,1,1,1,1,1,1,1,1,1,1,1,1,1,1,1,1,1,1,1,1,1,1,1,1,1,1,1,1,1,1,1,1,1,1,0,0,0,0,1,1,1,1,1,1,1,1,1,1,1,1,1,1,1,1,1,1,0,1,1,1,1,1,1,1,1,1,1,1,1,1,0,0,0,0,0,1,1,1,1,0,1,1,1,1,0,1,1,1,1,1,1,0,1,1,1,1,1,1,1,1,1,1,1,1,0,1,0,0,0,1,1,1,1,0,0,1,1,1,1,1,1,1,0,1,1,1,1,1]",1,,,,,,stimuli/white_butterfly.png,stimuli/grey_butterfly.png,2,stimuli/red_flower.png,stimuli/green_flower.png,stimuli/yellow_flower.png,stimuli/blue_flower.png,up,stimuli/objects/toyanimal05.jpg,1,5,stimuli/grey_butterfly.png,1,4,2020-12-18_15h03.19.814,premce3DEU_ses-02_part-01_label-phase1,2020.1.2,Win32,60,,,,,up,1,0.77972,0,25,25,25,1,,,,,,,,
,,,,,1,"[1,1,1,1,1,1,1,1,1,1,1,1,1,1,1,1,1,1,1,1,1,1,1,1,1,1,1,1,1,1,1,1,1,1,1,1,1,1,1,1,1,1,1,1,1,1,1,1,1,1,1,0,0,0,0,1,1,1,1,1,1,1,1,1,1,1,1,1,1,1,1,1,1,0,1,1,1,1,1,1,1,1,1,1,1,1,1,0,0,0,0,0,1,1,1,1,0,1,1,1,1,0,1,1,1,1,1,1,0,1,1,1,1,1,1,1,1,1,1,1,1,0,1,0,0,0,1,1,1,1,0,0,1,1,1,1,1,1,1,0,1,1,1,1,1,1]",1,,,,,,stimuli/grey_butterfly.png,stimuli/white_butterfly.png,1,stimuli/blue_flower.png,stimuli/red_flower.png,stimuli/green_flower.png,stimuli/yellow_flower.png,down,stimuli/objects/candycane01a.jpg,1,5,stimuli/grey_butterfly.png,1,4,2020-12-18_15h03.19.814,premce3DEU_ses-02_part-01_label-phase1,2020.1.2,Win32,60,,,,,down,1,1.01705,0,26,26,26,1,,,,,,,,
,,,,,1,"[1,1,1,1,1,1,1,1,1,1,1,1,1,1,1,1,1,1,1,1,1,1,1,1,1,1,1,1,1,1,1,1,1,1,1,1,1,1,1,1,1,1,1,1,1,1,1,1,1,1,1,0,0,0,0,1,1,1,1,1,1,1,1,1,1,1,1,1,1,1,1,1,1,0,1,1,1,1,1,1,1,1,1,1,1,1,1,0,0,0,0,0,1,1,1,1,0,1,1,1,1,0,1,1,1,1,1,1,0,1,1,1,1,1,1,1,1,1,1,1,1,0,1,0,0,0,1,1,1,1,0,0,1,1,1,1,1,1,1,0,1,1,1,1,1,1,1]",1,,,,,,stimuli/white_butterfly.png,stimuli/grey_butterfly.png,2,stimuli/blue_flower.png,stimuli/red_flower.png,stimuli/green_flower.png,stimuli/yellow_flower.png,down,stimuli/objects/vacuumcleaner01.jpg,1,5,stimuli/grey_butterfly.png,1,4,2020-12-18_15h03.19.814,premce3DEU_ses-02_part-01_label-phase1,2020.1.2,Win32,60,,,,,down,1,0.438485,0,27,27,27,1,,,,,,,,
,,,,,1,"[1,1,1,1,1,1,1,1,1,1,1,1,1,1,1,1,1,1,1,1,1,1,1,1,1,1,1,1,1,1,1,1,1,1,1,1,1,1,1,1,1,1,1,1,1,1,1,1,1,1,1,0,0,0,0,1,1,1,1,1,1,1,1,1,1,1,1,1,1,1,1,1,1,0,1,1,1,1,1,1,1,1,1,1,1,1,1,0,0,0,0,0,1,1,1,1,0,1,1,1,1,0,1,1,1,1,1,1,0,1,1,1,1,1,1,1,1,1,1,1,1,0,1,0,0,0,1,1,1,1,0,0,1,1,1,1,1,1,1,0,1,1,1,1,1,1,1,1]",1,,,,,,stimuli/grey_butterfly.png,stimuli/white_butterfly.png,1,stimuli/green_flower.png,stimuli/blue_flower.png,stimuli/red_flower.png,stimuli/yellow_flower.png,left,stimuli/objects/hotdog.jpg,1,5,stimuli/grey_butterfly.png,1,4,2020-12-18_15h03.19.814,premce3DEU_ses-02_part-01_label-phase1,2020.1.2,Win32,60,,,,,left,1,0.478165,0,28,28,28,1,,,,,,,,
,,,,,1,"[1,1,1,1,1,1,1,1,1,1,1,1,1,1,1,1,1,1,1,1,1,1,1,1,1,1,1,1,1,1,1,1,1,1,1,1,1,1,1,1,1,1,1,1,1,1,1,1,1,1,1,0,0,0,0,1,1,1,1,1,1,1,1,1,1,1,1,1,1,1,1,1,1,0,1,1,1,1,1,1,1,1,1,1,1,1,1,0,0,0,0,0,1,1,1,1,0,1,1,1,1,0,1,1,1,1,1,1,0,1,1,1,1,1,1,1,1,1,1,1,1,0,1,0,0,0,1,1,1,1,0,0,1,1,1,1,1,1,1,0,1,1,1,1,1,1,1,1,1]",1,,,,,,stimuli/white_butterfly.png,stimuli/grey_butterfly.png,1,stimuli/red_flower.png,stimuli/yellow_flower.png,stimuli/blue_flower.png,stimuli/green_flower.png,left,stimuli/objects/lantern03.jpg,1,5,stimuli/white_butterfly.png,1,4,2020-12-18_15h03.19.814,premce3DEU_ses-02_part-01_label-phase1,2020.1.2,Win32,60,,,,,left,1,0.737525,0,29,29,29,1,,,,,,,,
,,,,,0,"[1,1,1,1,1,1,1,1,1,1,1,1,1,1,1,1,1,1,1,1,1,1,1,1,1,1,1,1,1,1,1,1,1,1,1,1,1,1,1,1,1,1,1,1,1,1,1,1,1,1,1,0,0,0,0,1,1,1,1,1,1,1,1,1,1,1,1,1,1,1,1,1,1,0,1,1,1,1,1,1,1,1,1,1,1,1,1,0,0,0,0,0,1,1,1,1,0,1,1,1,1,0,1,1,1,1,1,1,0,1,1,1,1,1,1,1,1,1,1,1,1,0,1,0,0,0,1,1,1,1,0,0,1,1,1,1,1,1,1,0,1,1,1,1,1,1,1,1,1,1]",1,,,,,,stimuli/grey_butterfly.png,stimuli/white_butterfly.png,2,stimuli/yellow_flower.png,stimuli/blue_flower.png,stimuli/green_flower.png,stimuli/red_flower.png,left,stimuli/objects/acorn.jpg,0,5,stimuli/white_butterfly.png,1,4,2020-12-18_15h03.19.814,premce3DEU_ses-02_part-01_label-phase1,2020.1.2,Win32,60,,,,,right,0,0.4041,0,30,30,30,1,,,,,,,,
,,,,,1,"[1,1,1,1,1,1,1,1,1,1,1,1,1,1,1,1,1,1,1,1,1,1,1,1,1,1,1,1,1,1,1,1,1,1,1,1,1,1,1,1,1,1,1,1,1,1,1,1,1,1,1,0,0,0,0,1,1,1,1,1,1,1,1,1,1,1,1,1,1,1,1,1,1,0,1,1,1,1,1,1,1,1,1,1,1,1,1,0,0,0,0,0,1,1,1,1,0,1,1,1,1,0,1,1,1,1,1,1,0,1,1,1,1,1,1,1,1,1,1,1,1,0,1,0,0,0,1,1,1,1,0,0,1,1,1,1,1,1,1,0,1,1,1,1,1,1,1,1,1,1]",1,,,,,,stimuli/white_butterfly.png,stimuli/grey_butterfly.png,2,stimuli/yellow_flower.png,stimuli/green_flower.png,stimuli/blue_flower.png,stimuli/red_flower.png,up,stimuli/objects/blender.jpg,1,5,stimuli/grey_butterfly.png,1,4,2020-12-18_15h03.19.814,premce3DEU_ses-02_part-01_label-phase1,2020.1.2,Win32,60,,,,,up,1,0.532565,0,31,31,31,1,,,,,,,,
,,,,,1,"[1,1,1,1,1,1,1,1,1,1,1,1,1,1,1,1,1,1,1,1,1,1,1,1,1,1,1,1,1,1,1,1,1,1,1,1,1,1,1,1,1,1,1,1,1,1,1,1,1,1,1,0,0,0,0,1,1,1,1,1,1,1,1,1,1,1,1,1,1,1,1,1,1,0,1,1,1,1,1,1,1,1,1,1,1,1,1,0,0,0,0,0,1,1,1,1,0,1,1,1,1,0,1,1,1,1,1,1,0,1,1,1,1,1,1,1,1,1,1,1,1,0,1,0,0,0,1,1,1,1,0,0,1,1,1,1,1,1,1,0,1,1,1,1,1,1,1,1,1,1,1]",1,,,,,,stimuli/grey_butterfly.png,stimuli/white_butterfly.png,2,stimuli/green_flower.png,stimuli/red_flower.png,stimuli/blue_flower.png,stimuli/yellow_flower.png,up,stimuli/objects/jellybean.jpg,1,5,stimuli/white_butterfly.png,1,4,2020-12-18_15h03.19.814,premce3DEU_ses-02_part-01_label-phase1,2020.1.2,Win32,60,,,,,up,1,0.41676,0,32,32,32,1,,,,,,,,
,,,,,1,"[1,1,1,1,1,1,1,1,1,1,1,1,1,1,1,1,1,1,1,1,1,1,1,1,1,1,1,1,1,1,1,1,1,1,1,1,1,1,1,1,1,1,1,1,1,1,1,1,1,1,1,0,0,0,0,1,1,1,1,1,1,1,1,1,1,1,1,1,1,1,1,1,1,0,1,1,1,1,1,1,1,1,1,1,1,1,1,0,0,0,0,0,1,1,1,1,0,1,1,1,1,0,1,1,1,1,1,1,0,1,1,1,1,1,1,1,1,1,1,1,1,0,1,0,0,0,1,1,1,1,0,0,1,1,1,1,1,1,1,0,1,1,1,1,1,1,1,1,1,1,1,1]",1,,,,,,stimuli/grey_butterfly.png,stimuli/white_butterfly.png,1,stimuli/red_flower.png,stimuli/yellow_flower.png,stimuli/blue_flower.png,stimuli/green_flower.png,right,stimuli/objects/musicstand.jpg,1,5,stimuli/grey_butterfly.png,1,4,2020-12-18_15h03.19.814,premce3DEU_ses-02_part-01_label-phase1,2020.1.2,Win32,60,,,,,right,1,0.55722,0,33,33,33,1,,,,,,,,
,,,,,1,"[1,1,1,1,1,1,1,1,1,1,1,1,1,1,1,1,1,1,1,1,1,1,1,1,1,1,1,1,1,1,1,1,1,1,1,1,1,1,1,1,1,1,1,1,1,1,1,1,1,1,1,0,0,0,0,1,1,1,1,1,1,1,1,1,1,1,1,1,1,1,1,1,1,0,1,1,1,1,1,1,1,1,1,1,1,1,1,0,0,0,0,0,1,1,1,1,0,1,1,1,1,0,1,1,1,1,1,1,0,1,1,1,1,1,1,1,1,1,1,1,1,0,1,0,0,0,1,1,1,1,0,0,1,1,1,1,1,1,1,0,1,1,1,1,1,1,1,1,1,1,1,1,1]",1,,,,,,stimuli/grey_butterfly.png,stimuli/white_butterfly.png,2,stimuli/red_flower.png,stimuli/green_flower.png,stimuli/blue_flower.png,stimuli/yellow_flower.png,left,stimuli/objects/skihelmet01.jpg,1,5,stimuli/white_butterfly.png,1,4,2020-12-18_15h03.19.814,premce3DEU_ses-02_part-01_label-phase1,2020.1.2,Win32,60,,,,,left,1,0.318425,0,34,34,34,1,,,,,,,,
,,,,,1,"[1,1,1,1,1,1,1,1,1,1,1,1,1,1,1,1,1,1,1,1,1,1,1,1,1,1,1,1,1,1,1,1,1,1,1,1,1,1,1,1,1,1,1,1,1,1,1,1,1,1,1,0,0,0,0,1,1,1,1,1,1,1,1,1,1,1,1,1,1,1,1,1,1,0,1,1,1,1,1,1,1,1,1,1,1,1,1,0,0,0,0,0,1,1,1,1,0,1,1,1,1,0,1,1,1,1,1,1,0,1,1,1,1,1,1,1,1,1,1,1,1,0,1,0,0,0,1,1,1,1,0,0,1,1,1,1,1,1,1,0,1,1,1,1,1,1,1,1,1,1,1,1,1,1]",1,,,,,,stimuli/grey_butterfly.png,stimuli/white_butterfly.png,2,stimuli/blue_flower.png,stimuli/red_flower.png,stimuli/yellow_flower.png,stimuli/green_flower.png,up,stimuli/objects/butterfly2.jpg,1,5,stimuli/white_butterfly.png,1,4,2020-12-18_15h03.19.814,premce3DEU_ses-02_part-01_label-phase1,2020.1.2,Win32,60,,,,,up,1,1.441685,0,35,35,35,1,,,,,,,,
,,,,,1,"[1,1,1,1,1,1,1,1,1,1,1,1,1,1,1,1,1,1,1,1,1,1,1,1,1,1,1,1,1,1,1,1,1,1,1,1,1,1,1,1,1,1,1,1,1,1,1,1,1,1,1,0,0,0,0,1,1,1,1,1,1,1,1,1,1,1,1,1,1,1,1,1,1,0,1,1,1,1,1,1,1,1,1,1,1,1,1,0,0,0,0,0,1,1,1,1,0,1,1,1,1,0,1,1,1,1,1,1,0,1,1,1,1,1,1,1,1,1,1,1,1,0,1,0,0,0,1,1,1,1,0,0,1,1,1,1,1,1,1,0,1,1,1,1,1,1,1,1,1,1,1,1,1,1,1]",1,,,,,,stimuli/white_butterfly.png,stimuli/grey_butterfly.png,2,stimuli/blue_flower.png,stimuli/yellow_flower.png,stimuli/green_flower.png,stimuli/red_flower.png,down,stimuli/objects/frisbee.jpg,1,5,stimuli/grey_butterfly.png,1,4,2020-12-18_15h03.19.814,premce3DEU_ses-02_part-01_label-phase1,2020.1.2,Win32,60,,,,,down,1,0.43163,0,36,36,36,1,,,,,,,,
,,,,,1,"[1,1,1,1,1,1,1,1,1,1,1,1,1,1,1,1,1,1,1,1,1,1,1,1,1,1,1,1,1,1,1,1,1,1,1,1,1,1,1,1,1,1,1,1,1,1,1,1,1,1,1,0,0,0,0,1,1,1,1,1,1,1,1,1,1,1,1,1,1,1,1,1,1,0,1,1,1,1,1,1,1,1,1,1,1,1,1,0,0,0,0,0,1,1,1,1,0,1,1,1,1,0,1,1,1,1,1,1,0,1,1,1,1,1,1,1,1,1,1,1,1,0,1,0,0,0,1,1,1,1,0,0,1,1,1,1,1,1,1,0,1,1,1,1,1,1,1,1,1,1,1,1,1,1,1,1]",1,,,,,,stimuli/grey_butterfly.png,stimuli/white_butterfly.png,2,stimuli/red_flower.png,stimuli/yellow_flower.png,stimuli/blue_flower.png,stimuli/green_flower.png,left,stimuli/objects/shovel01.jpg,1,5,stimuli/white_butterfly.png,1,4,2020-12-18_15h03.19.814,premce3DEU_ses-02_part-01_label-phase1,2020.1.2,Win32,60,,,,,left,1,0.344835,0,37,37,37,1,,,,,,,,
,,,,,1,"[1,1,1,1,1,1,1,1,1,1,1,1,1,1,1,1,1,1,1,1,1,1,1,1,1,1,1,1,1,1,1,1,1,1,1,1,1,1,1,1,1,1,1,1,1,1,1,1,1,1,1,0,0,0,0,1,1,1,1,1,1,1,1,1,1,1,1,1,1,1,1,1,1,0,1,1,1,1,1,1,1,1,1,1,1,1,1,0,0,0,0,0,1,1,1,1,0,1,1,1,1,0,1,1,1,1,1,1,0,1,1,1,1,1,1,1,1,1,1,1,1,0,1,0,0,0,1,1,1,1,0,0,1,1,1,1,1,1,1,0,1,1,1,1,1,1,1,1,1,1,1,1,1,1,1,1,1]",1,,,,,,stimuli/white_butterfly.png,stimuli/grey_butterfly.png,1,stimuli/blue_flower.png,stimuli/green_flower.png,stimuli/red_flower.png,stimuli/yellow_flower.png,up,stimuli/objects/skiboot01a.jpg,0,5,stimuli/white_butterfly.png,1,4,2020-12-18_15h03.19.814,premce3DEU_ses-02_part-01_label-phase1,2020.1.2,Win32,60,,,,,up,1,1.30934,0,38,38,38,1,,,,,,,,
,,,,,1,"[1,1,1,1,1,1,1,1,1,1,1,1,1,1,1,1,1,1,1,1,1,1,1,1,1,1,1,1,1,1,1,1,1,1,1,1,1,1,1,1,1,1,1,1,1,1,1,1,1,1,1,0,0,0,0,1,1,1,1,1,1,1,1,1,1,1,1,1,1,1,1,1,1,0,1,1,1,1,1,1,1,1,1,1,1,1,1,0,0,0,0,0,1,1,1,1,0,1,1,1,1,0,1,1,1,1,1,1,0,1,1,1,1,1,1,1,1,1,1,1,1,0,1,0,0,0,1,1,1,1,0,0,1,1,1,1,1,1,1,0,1,1,1,1,1,1,1,1,1,1,1,1,1,1,1,1,1]",1,,,,,,stimuli/grey_butterfly.png,stimuli/white_butterfly.png,2,stimuli/blue_flower.png,stimuli/yellow_flower.png,stimuli/green_flower.png,stimuli/red_flower.png,right,stimuli/objects/callbell.jpg,1,5,stimuli/white_butterfly.png,1,4,2020-12-18_15h03.19.814,premce3DEU_ses-02_part-01_label-phase1,2020.1.2,Win32,60,,,,,right,1,1.22243,0,39,39,39,1,,,,,,,,
,,,,,1,"[1,1,1,1,1,1,1,1,1,1,1,1,1,1,1,1,1,1,1,1,1,1,1,1,1,1,1,1,1,1,1,1,1,1,1,1,1,1,1,1,1,1,1,1,1,1,1,1,1,1,1,0,0,0,0,1,1,1,1,1,1,1,1,1,1,1,1,1,1,1,1,1,1,0,1,1,1,1,1,1,1,1,1,1,1,1,1,0,0,0,0,0,1,1,1,1,0,1,1,1,1,0,1,1,1,1,1,1,0,1,1,1,1,1,1,1,1,1,1,1,1,0,1,0,0,0,1,1,1,1,0,0,1,1,1,1,1,1,1,0,1,1,1,1,1,1,1,1,1,1,1,1,1,1,1,1,1,1]",1,,,,,,stimuli/white_butterfly.png,stimuli/grey_butterfly.png,2,stimuli/green_flower.png,stimuli/yellow_flower.png,stimuli/red_flower.png,stimuli/blue_flower.png,left,stimuli/objects/shelves.jpg,1,5,stimuli/grey_butterfly.png,1,4,2020-12-18_15h03.19.814,premce3DEU_ses-02_part-01_label-phase1,2020.1.2,Win32,60,,,,,left,1,1.38232,0,40,40,40,1,,,,,,,,
,,,,,0,"[1,1,1,1,1,1,1,1,1,1,1,1,1,1,1,1,1,1,1,1,1,1,1,1,1,1,1,1,1,1,1,1,1,1,1,1,1,1,1,1,1,1,1,1,1,1,1,1,1,1,1,0,0,0,0,1,1,1,1,1,1,1,1,1,1,1,1,1,1,1,1,1,1,0,1,1,1,1,1,1,1,1,1,1,1,1,1,0,0,0,0,0,1,1,1,1,0,1,1,1,1,0,1,1,1,1,1,1,0,1,1,1,1,1,1,1,1,1,1,1,1,0,1,0,0,0,1,1,1,1,0,0,1,1,1,1,1,1,1,0,1,1,1,1,1,1,1,1,1,1,1,1,1,1,1,1,1,1,1]",1,,,,,,stimuli/grey_butterfly.png,stimuli/white_butterfly.png,2,stimuli/yellow_flower.png,stimuli/red_flower.png,stimuli/green_flower.png,stimuli/blue_flower.png,right,stimuli/objects/doubledoors.jpg,0,5,stimuli/white_butterfly.png,1,4,2020-12-18_15h03.19.814,premce3DEU_ses-02_part-01_label-phase1,2020.1.2,Win32,60,,,,,up,0,1.964765,0,41,41,41,1,,,,,,,,
,,,,,,,,,,,,,,,,,,,,,,,,,,4,2020-12-18_15h03.19.814,premce3DEU_ses-02_part-01_label-phase1,2020.1.2,Win32,60,,,,,,,,,,,,,,,,,,,space,3.597105
