instructions_loop.thisRepN,instructions_loop.thisTrialN,instructions_loop.thisN,instructions_loop.thisIndex,instructions_loop.ran,text1,text2,text3,participant,date,expName,psychopyVersion,OS,frameRate,recog_resp.keys,recog_resp.rt,conf_resp.keys,conf_resp.rt,recog_loop.thisRepN,recog_loop.thisTrialN,recog_loop.thisN,recog_loop.thisIndex,recog_loop.ran,images,corr_ans,type,order,key_resp_break.keys,key_resp_break.rt,list_loop.thisRepN,list_loop.thisTrialN,list_loop.thisN,list_loop.thisIndex,list_loop.ran,recog_list
0,0,0,0,1,Willkommen zum letzten Teil des Experiments!,,Mit der LEERTASTE kannst du mit der Aufgabe fortfahren.,6,2020-12-22_10h32.33.088,premce3DEU_ses-02_part-02_label-phase2,2020.1.2,Win32,60,,,,,,,,,,,,,,,,,,,,,
0,1,1,1,1,,"Jetzt werden wir dir einige Bilder zeigen.

Bitte gib zu jedem Bild an, ob du du es im Verlauf des Experiments gesehen hast.

Drücke die LINKE PFEILTASTE für JA
Drücke die RECHTE PFEILTASTE für NEIN

",Mit der LEERTASTE kannst du mit der Aufgabe fortfahren.,6,2020-12-22_10h32.33.088,premce3DEU_ses-02_part-02_label-phase2,2020.1.2,Win32,60,,,,,,,,,,,,,,,,,,,,,
0,2,2,2,1,,"Anschließend bitten wir dich anzugeben wie sicher du dir bei deiner Wahl bist.

Bitte nutze die Zifferntasten von 1 bis 4 am oberen Ende deiner Tastatur um anzugeben, wie sicher du dir bei deiner Antwort bist.

Die Zahlen stehen für

1 = Sehr unsicher
2 = Unsicher
3 = Sicher
4 = Sehr sicher",Mit der LEERTASTE kannst du mit der Aufgabe fortfahren.,6,2020-12-22_10h32.33.088,premce3DEU_ses-02_part-02_label-phase2,2020.1.2,Win32,60,,,,,,,,,,,,,,,,,,,,,
,,,,,,,,6,2020-12-22_10h32.33.088,premce3DEU_ses-02_part-02_label-phase2,2020.1.2,Win32,60,right,6.99013,4,3.80268,0,0,0,94,1,stimuli/objects/scorpion.jpg,right,new,255,,,,,,,,
,,,,,,,,6,2020-12-22_10h32.33.088,premce3DEU_ses-02_part-02_label-phase2,2020.1.2,Win32,60,right,2.37677,3,1.823115,0,1,1,107,1,stimuli/objects/tambourine03.jpg,right,new,268,,,,,,,,
,,,,,,,,6,2020-12-22_10h32.33.088,premce3DEU_ses-02_part-02_label-phase2,2020.1.2,Win32,60,right,8.077265,1,2.52731,0,2,2,110,1,stimuli/objects/funnel.jpg,right,new,271,,,,,,,,
,,,,,,,,6,2020-12-22_10h32.33.088,premce3DEU_ses-02_part-02_label-phase2,2020.1.2,Win32,60,left,5.47092,1,0.77439,0,3,3,146,1,stimuli/objects/tie02.jpg,left,old,307,,,,,,,,
,,,,,,,,6,2020-12-22_10h32.33.088,premce3DEU_ses-02_part-02_label-phase2,2020.1.2,Win32,60,right,3.506705,2,0.87568,0,4,4,121,1,stimuli/objects/shield02.jpg,right,new,282,,,,,,,,
,,,,,,,,6,2020-12-22_10h32.33.088,premce3DEU_ses-02_part-02_label-phase2,2020.1.2,Win32,60,right,2.876685,3,1.081245,0,5,5,95,1,stimuli/objects/sealion.jpg,right,new,256,,,,,,,,
,,,,,,,,6,2020-12-22_10h32.33.088,premce3DEU_ses-02_part-02_label-phase2,2020.1.2,Win32,60,right,1.70581,3,0.83641,0,6,6,27,1,stimuli/objects/tombstone.jpg,right,new,188,,,,,,,,
,,,,,,,,6,2020-12-22_10h32.33.088,premce3DEU_ses-02_part-02_label-phase2,2020.1.2,Win32,60,right,1.538835,2,0.7058,0,7,7,130,1,stimuli/objects/pirateflag.jpg,left,old,291,,,,,,,,
,,,,,,,,6,2020-12-22_10h32.33.088,premce3DEU_ses-02_part-02_label-phase2,2020.1.2,Win32,60,right,1.26638,1,2.929175,0,8,8,52,1,stimuli/objects/acorn.jpg,left,old,213,,,,,,,,
,,,,,,,,6,2020-12-22_10h32.33.088,premce3DEU_ses-02_part-02_label-phase2,2020.1.2,Win32,60,right,1.85747,3,2.301525,0,9,9,46,1,stimuli/objects/kneepad01c.jpg,right,new,207,,,,,,,,
,,,,,,,,6,2020-12-22_10h32.33.088,premce3DEU_ses-02_part-02_label-phase2,2020.1.2,Win32,60,right,1.700515,2,0.9684,0,10,10,55,1,stimuli/objects/dogsled.jpg,left,old,216,,,,,,,,
,,,,,,,,6,2020-12-22_10h32.33.088,premce3DEU_ses-02_part-02_label-phase2,2020.1.2,Win32,60,right,1.98789,2,0.74904,0,11,11,77,1,stimuli/objects/electricguitar01.jpg,left,old,238,,,,,,,,
,,,,,,,,6,2020-12-22_10h32.33.088,premce3DEU_ses-02_part-02_label-phase2,2020.1.2,Win32,60,right,0.68822,2,0.84223,0,12,12,101,1,stimuli/objects/microphone01.jpg,right,new,262,,,,,,,,
,,,,,,,,6,2020-12-22_10h32.33.088,premce3DEU_ses-02_part-02_label-phase2,2020.1.2,Win32,60,right,1.380005,1,1.98801,0,13,13,54,1,stimuli/objects/acousticguitar02.jpg,right,new,215,,,,,,,,
,,,,,,,,6,2020-12-22_10h32.33.088,premce3DEU_ses-02_part-02_label-phase2,2020.1.2,Win32,60,right,1.053855,1,1.19733,0,14,14,0,1,stimuli/objects/hulahoop.jpg,left,old,161,,,,,,,,
,,,,,,,,6,2020-12-22_10h32.33.088,premce3DEU_ses-02_part-02_label-phase2,2020.1.2,Win32,60,right,0.938685,2,0.958575,0,15,15,114,1,stimuli/objects/cymbal.jpg,left,old,275,,,,,,,,
,,,,,,,,6,2020-12-22_10h32.33.088,premce3DEU_ses-02_part-02_label-phase2,2020.1.2,Win32,60,right,4.006215,3,1.337935,0,16,16,118,1,stimuli/objects/wallclock.jpg,right,new,279,,,,,,,,
,,,,,,,,6,2020-12-22_10h32.33.088,premce3DEU_ses-02_part-02_label-phase2,2020.1.2,Win32,60,right,1.234535,3,0.990705,0,17,17,147,1,stimuli/objects/bleachers.jpg,left,old,308,,,,,,,,
,,,,,,,,6,2020-12-22_10h32.33.088,premce3DEU_ses-02_part-02_label-phase2,2020.1.2,Win32,60,right,0.899295,4,0.76858,0,18,18,99,1,stimuli/objects/bacon.jpg,left,old,260,,,,,,,,
,,,,,,,,6,2020-12-22_10h32.33.088,premce3DEU_ses-02_part-02_label-phase2,2020.1.2,Win32,60,right,1.08077,3,0.614675,0,19,19,65,1,stimuli/objects/spacerover.jpg,right,new,226,,,,,,,,
,,,,,,,,6,2020-12-22_10h32.33.088,premce3DEU_ses-02_part-02_label-phase2,2020.1.2,Win32,60,right,0.76353,2,1.291475,0,20,20,24,1,stimuli/objects/jaguar.jpg,left,old,185,,,,,,,,
,,,,,,,,6,2020-12-22_10h32.33.088,premce3DEU_ses-02_part-02_label-phase2,2020.1.2,Win32,60,right,2.095275,2,1.0996,0,21,21,93,1,stimuli/objects/slushiemachine.jpg,right,new,254,,,,,,,,
,,,,,,,,6,2020-12-22_10h32.33.088,premce3DEU_ses-02_part-02_label-phase2,2020.1.2,Win32,60,left,2.58881,4,0.8079,0,22,22,67,1,stimuli/objects/snowshovel.jpg,left,old,228,,,,,,,,
,,,,,,,,6,2020-12-22_10h32.33.088,premce3DEU_ses-02_part-02_label-phase2,2020.1.2,Win32,60,right,1.084295,3,2.673485,0,23,23,115,1,stimuli/objects/witchhat.jpg,left,old,276,,,,,,,,
,,,,,,,,6,2020-12-22_10h32.33.088,premce3DEU_ses-02_part-02_label-phase2,2020.1.2,Win32,60,right,4.88826,3,1.321885,0,24,24,134,1,stimuli/objects/bikelock.jpg,right,new,295,,,,,,,,
,,,,,,,,6,2020-12-22_10h32.33.088,premce3DEU_ses-02_part-02_label-phase2,2020.1.2,Win32,60,right,3.360985,3,1.34397,0,25,25,122,1,stimuli/objects/lip.jpg,right,new,283,,,,,,,,
,,,,,,,,6,2020-12-22_10h32.33.088,premce3DEU_ses-02_part-02_label-phase2,2020.1.2,Win32,60,right,0.84541,3,0.50327,0,26,26,57,1,stimuli/objects/spaghetti01.jpg,right,new,218,,,,,,,,
,,,,,,,,6,2020-12-22_10h32.33.088,premce3DEU_ses-02_part-02_label-phase2,2020.1.2,Win32,60,right,3.4189,2,0.622245,0,27,27,113,1,stimuli/objects/bluejay.jpg,right,new,274,,,,,,,,
,,,,,,,,6,2020-12-22_10h32.33.088,premce3DEU_ses-02_part-02_label-phase2,2020.1.2,Win32,60,right,0.78743,3,0.73769,0,28,28,32,1,stimuli/objects/cross01.jpg,right,new,193,,,,,,,,
,,,,,,,,6,2020-12-22_10h32.33.088,premce3DEU_ses-02_part-02_label-phase2,2020.1.2,Win32,60,right,0.867795,2,0.61021,0,29,29,145,1,stimuli/objects/rooster.jpg,right,new,306,,,,,,,,
,,,,,,,,6,2020-12-22_10h32.33.088,premce3DEU_ses-02_part-02_label-phase2,2020.1.2,Win32,60,right,0.817415,2,0.58867,0,30,30,19,1,stimuli/objects/zipper.jpg,right,new,180,,,,,,,,
,,,,,,,,6,2020-12-22_10h32.33.088,premce3DEU_ses-02_part-02_label-phase2,2020.1.2,Win32,60,left,3.033015,1,1.519465,0,31,31,75,1,stimuli/objects/bookshelf.jpg,left,old,236,,,,,,,,
,,,,,,,,6,2020-12-22_10h32.33.088,premce3DEU_ses-02_part-02_label-phase2,2020.1.2,Win32,60,right,1.224315,3,0.58246,0,32,32,8,1,stimuli/objects/cloud.jpg,left,old,169,,,,,,,,
,,,,,,,,6,2020-12-22_10h32.33.088,premce3DEU_ses-02_part-02_label-phase2,2020.1.2,Win32,60,right,0.91057,1,0.85989,0,33,33,157,1,stimuli/objects/eagle.jpg,right,new,318,,,,,,,,
,,,,,,,,6,2020-12-22_10h32.33.088,premce3DEU_ses-02_part-02_label-phase2,2020.1.2,Win32,60,right,0.829895,2,0.52325,0,34,34,22,1,stimuli/objects/crab01.jpg,left,old,183,,,,,,,,
,,,,,,,,6,2020-12-22_10h32.33.088,premce3DEU_ses-02_part-02_label-phase2,2020.1.2,Win32,60,right,1.894145,2,0.555385,0,35,35,91,1,stimuli/objects/shed02.jpg,right,new,252,,,,,,,,
,,,,,,,,6,2020-12-22_10h32.33.088,premce3DEU_ses-02_part-02_label-phase2,2020.1.2,Win32,60,right,0.817415,2,1.44397,0,36,36,148,1,stimuli/objects/snowglobe.jpg,left,old,309,,,,,,,,
,,,,,,,,6,2020-12-22_10h32.33.088,premce3DEU_ses-02_part-02_label-phase2,2020.1.2,Win32,60,right,1.00153,2,0.5934,0,37,37,76,1,stimuli/objects/statue.jpg,right,new,237,,,,,,,,
,,,,,,,,6,2020-12-22_10h32.33.088,premce3DEU_ses-02_part-02_label-phase2,2020.1.2,Win32,60,right,1.04478,2,0.89633,0,38,38,70,1,stimuli/objects/cormorant.jpg,right,new,231,,,,,,,,
,,,,,,,,6,2020-12-22_10h32.33.088,premce3DEU_ses-02_part-02_label-phase2,2020.1.2,Win32,60,right,1.31374,1,2.39574,0,39,39,104,1,stimuli/objects/rockingchair.jpg,left,old,265,,,,,,,,
,,,,,,,,6,2020-12-22_10h32.33.088,premce3DEU_ses-02_part-02_label-phase2,2020.1.2,Win32,60,right,1.68981,1,2.457075,0,40,40,11,1,stimuli/objects/dolphin01.jpg,left,old,172,,,,,,,,
,,,,,,,,6,2020-12-22_10h32.33.088,premce3DEU_ses-02_part-02_label-phase2,2020.1.2,Win32,60,right,0.98746,3,0.65171,0,41,41,3,1,stimuli/objects/bathtub.jpg,left,old,164,,,,,,,,
,,,,,,,,6,2020-12-22_10h32.33.088,premce3DEU_ses-02_part-02_label-phase2,2020.1.2,Win32,60,right,1.445655,3,1.19774,0,42,42,149,1,stimuli/objects/mortarandpestle.jpg,right,new,310,,,,,,,,
,,,,,,,,6,2020-12-22_10h32.33.088,premce3DEU_ses-02_part-02_label-phase2,2020.1.2,Win32,60,right,1.15749,1,0.89261,0,43,43,66,1,stimuli/objects/tricornhat.jpg,right,new,227,,,,,,,,
,,,,,,,,6,2020-12-22_10h32.33.088,premce3DEU_ses-02_part-02_label-phase2,2020.1.2,Win32,60,right,1.391835,4,0.611525,0,44,44,62,1,stimuli/objects/painting.jpg,right,new,223,,,,,,,,
,,,,,,,,6,2020-12-22_10h32.33.088,premce3DEU_ses-02_part-02_label-phase2,2020.1.2,Win32,60,right,1.38648,2,1.271065,0,45,45,141,1,stimuli/objects/gong.jpg,left,old,302,,,,,,,,
,,,,,,,,6,2020-12-22_10h32.33.088,premce3DEU_ses-02_part-02_label-phase2,2020.1.2,Win32,60,right,1.07107,2,0.45367,0,46,46,140,1,stimuli/objects/treadmill.jpg,left,old,301,,,,,,,,
,,,,,,,,6,2020-12-22_10h32.33.088,premce3DEU_ses-02_part-02_label-phase2,2020.1.2,Win32,60,left,2.752605,1,0.597305,0,47,47,5,1,stimuli/objects/wheelchair.jpg,left,old,166,,,,,,,,
,,,,,,,,6,2020-12-22_10h32.33.088,premce3DEU_ses-02_part-02_label-phase2,2020.1.2,Win32,60,right,1.1784,3,0.64296,0,48,48,12,1,stimuli/objects/musicsheet.jpg,right,new,173,,,,,,,,
,,,,,,,,6,2020-12-22_10h32.33.088,premce3DEU_ses-02_part-02_label-phase2,2020.1.2,Win32,60,right,5.596965,2,2.204235,0,49,49,10,1,stimuli/objects/spicerack.jpg,left,old,171,,,,,,,,
,,,,,,,,6,2020-12-22_10h32.33.088,premce3DEU_ses-02_part-02_label-phase2,2020.1.2,Win32,60,right,1.306625,2,0.463235,0,50,50,40,1,stimuli/objects/beehive.jpg,right,new,201,,,,,,,,
,,,,,,,,6,2020-12-22_10h32.33.088,premce3DEU_ses-02_part-02_label-phase2,2020.1.2,Win32,60,right,1.98604,2,1.07367,0,51,51,45,1,stimuli/objects/siamesecat.jpg,right,new,206,,,,,,,,
,,,,,,,,6,2020-12-22_10h32.33.088,premce3DEU_ses-02_part-02_label-phase2,2020.1.2,Win32,60,left,4.2738,1,1.17139,0,52,52,132,1,stimuli/objects/windshieldwiper02.jpg,left,old,293,,,,,,,,
,,,,,,,,6,2020-12-22_10h32.33.088,premce3DEU_ses-02_part-02_label-phase2,2020.1.2,Win32,60,right,1.075705,2,4.24371,0,53,53,58,1,stimuli/objects/tricycle.jpg,left,old,219,,,,,,,,
,,,,,,,,6,2020-12-22_10h32.33.088,premce3DEU_ses-02_part-02_label-phase2,2020.1.2,Win32,60,right,0.86565,3,4.163225,0,54,54,88,1,stimuli/objects/toilet.jpg,right,new,249,,,,,,,,
,,,,,,,,6,2020-12-22_10h32.33.088,premce3DEU_ses-02_part-02_label-phase2,2020.1.2,Win32,60,right,0.91648,3,0.318785,0,55,55,100,1,stimuli/objects/doubledoors.jpg,left,old,261,,,,,,,,
,,,,,,,,6,2020-12-22_10h32.33.088,premce3DEU_ses-02_part-02_label-phase2,2020.1.2,Win32,60,right,1.40988,3,0.428085,0,56,56,137,1,stimuli/objects/waterfall.jpg,right,new,298,,,,,,,,
,,,,,,,,6,2020-12-22_10h32.33.088,premce3DEU_ses-02_part-02_label-phase2,2020.1.2,Win32,60,right,1.08364,2,0.485575,0,57,57,4,1,stimuli/objects/blender.jpg,left,old,165,,,,,,,,
,,,,,,,,6,2020-12-22_10h32.33.088,premce3DEU_ses-02_part-02_label-phase2,2020.1.2,Win32,60,right,0.95163,2,0.844195,0,58,58,84,1,stimuli/objects/carbattery.jpg,right,new,245,,,,,,,,
,,,,,,,,6,2020-12-22_10h32.33.088,premce3DEU_ses-02_part-02_label-phase2,2020.1.2,Win32,60,left,3.90579,2,5.610845,0,59,59,44,1,stimuli/objects/donut.jpg,left,old,205,,,,,,,,
,,,,,,,,6,2020-12-22_10h32.33.088,premce3DEU_ses-02_part-02_label-phase2,2020.1.2,Win32,60,right,1.966635,2,2.974755,0,60,60,158,1,stimuli/objects/bowrake.jpg,right,new,319,,,,,,,,
,,,,,,,,6,2020-12-22_10h32.33.088,premce3DEU_ses-02_part-02_label-phase2,2020.1.2,Win32,60,left,1.48363,2,0.641045,0,61,61,127,1,stimuli/objects/shelf.jpg,right,new,288,,,,,,,,
,,,,,,,,6,2020-12-22_10h32.33.088,premce3DEU_ses-02_part-02_label-phase2,2020.1.2,Win32,60,right,0.74025,3,0.502585,0,62,62,144,1,stimuli/objects/walkietalkie.jpg,right,new,305,,,,,,,,
,,,,,,,,6,2020-12-22_10h32.33.088,premce3DEU_ses-02_part-02_label-phase2,2020.1.2,Win32,60,right,0.868465,3,0.47768,0,63,63,106,1,stimuli/objects/squirrel.jpg,right,new,267,,,,,,,,
,,,,,,,,6,2020-12-22_10h32.33.088,premce3DEU_ses-02_part-02_label-phase2,2020.1.2,Win32,60,left,2.460425,4,3.34956,0,64,64,36,1,stimuli/objects/sandcastle.jpg,left,old,197,,,,,,,,
,,,,,,,,6,2020-12-22_10h32.33.088,premce3DEU_ses-02_part-02_label-phase2,2020.1.2,Win32,60,right,1.246235,2,3.766095,0,65,65,47,1,stimuli/objects/candycane01a.jpg,left,old,208,,,,,,,,
,,,,,,,,6,2020-12-22_10h32.33.088,premce3DEU_ses-02_part-02_label-phase2,2020.1.2,Win32,60,right,1.12889,2,0.374655,0,66,66,15,1,stimuli/objects/stool01.jpg,left,old,176,,,,,,,,
,,,,,,,,6,2020-12-22_10h32.33.088,premce3DEU_ses-02_part-02_label-phase2,2020.1.2,Win32,60,right,0.785635,2,1.92052,0,67,67,139,1,stimuli/objects/locomotive.jpg,left,old,300,,,,,,,,
,,,,,,,,6,2020-12-22_10h32.33.088,premce3DEU_ses-02_part-02_label-phase2,2020.1.2,Win32,60,right,0.78596,3,0.77524,0,68,68,28,1,stimuli/objects/car.jpg,left,old,189,,,,,,,,
,,,,,,,,6,2020-12-22_10h32.33.088,premce3DEU_ses-02_part-02_label-phase2,2020.1.2,Win32,60,right,1.073205,3,0.443275,0,69,69,135,1,stimuli/objects/penguin.jpg,right,new,296,,,,,,,,
,,,,,,,,6,2020-12-22_10h32.33.088,premce3DEU_ses-02_part-02_label-phase2,2020.1.2,Win32,60,right,0.555995,3,0.534635,0,70,70,59,1,stimuli/objects/nosmokingsign.jpg,right,new,220,,,,,,,,
,,,,,,,,6,2020-12-22_10h32.33.088,premce3DEU_ses-02_part-02_label-phase2,2020.1.2,Win32,60,right,0.88899,3,0.383845,0,71,71,14,1,stimuli/objects/ipad02.jpg,left,old,175,,,,,,,,
,,,,,,,,6,2020-12-22_10h32.33.088,premce3DEU_ses-02_part-02_label-phase2,2020.1.2,Win32,60,right,0.8118,3,0.491655,0,72,72,86,1,stimuli/objects/trafficlight.jpg,left,old,247,,,,,,,,
,,,,,,,,6,2020-12-22_10h32.33.088,premce3DEU_ses-02_part-02_label-phase2,2020.1.2,Win32,60,right,1.3407,2,0.34972,0,73,73,96,1,stimuli/objects/hockeystick.jpg,left,old,257,,,,,,,,
,,,,,,,,6,2020-12-22_10h32.33.088,premce3DEU_ses-02_part-02_label-phase2,2020.1.2,Win32,60,right,0.690235,2,0.791725,0,74,74,1,1,stimuli/objects/tent.jpg,left,old,162,,,,,,,,
,,,,,,,,6,2020-12-22_10h32.33.088,premce3DEU_ses-02_part-02_label-phase2,2020.1.2,Win32,60,right,0.70444,2,0.472635,0,75,75,131,1,stimuli/objects/boxingglove01.jpg,right,new,292,,,,,,,,
,,,,,,,,6,2020-12-22_10h32.33.088,premce3DEU_ses-02_part-02_label-phase2,2020.1.2,Win32,60,right,1.19582,2,0.56326,0,76,76,126,1,stimuli/objects/birdfeeder.jpg,left,old,287,,,,,,,,
,,,,,,,,6,2020-12-22_10h32.33.088,premce3DEU_ses-02_part-02_label-phase2,2020.1.2,Win32,60,left,2.335945,2,3.06686,0,77,77,82,1,stimuli/objects/duck01.jpg,left,old,243,,,,,,,,
,,,,,,,,6,2020-12-22_10h32.33.088,premce3DEU_ses-02_part-02_label-phase2,2020.1.2,Win32,60,right,0.91407,4,0.55964,0,78,78,69,1,stimuli/objects/bumpercar.jpg,right,new,230,,,,,,,,
,,,,,,,,6,2020-12-22_10h32.33.088,premce3DEU_ses-02_part-02_label-phase2,2020.1.2,Win32,60,right,0.88442,4,0.620165,0,79,79,109,1,stimuli/objects/spiderweb.jpg,right,new,270,,,,,,,,
,,,,,,,,6,2020-12-22_10h32.33.088,premce3DEU_ses-02_part-02_label-phase2,2020.1.2,Win32,60,right,1.099625,1,0.789805,0,80,80,108,1,stimuli/objects/cork02.jpg,left,old,269,,,,,,,,
,,,,,,,,6,2020-12-22_10h32.33.088,premce3DEU_ses-02_part-02_label-phase2,2020.1.2,Win32,60,right,1.91658,2,3.53776,0,81,81,25,1,stimuli/objects/scooter.jpg,right,new,186,,,,,,,,
,,,,,,,,6,2020-12-22_10h32.33.088,premce3DEU_ses-02_part-02_label-phase2,2020.1.2,Win32,60,right,0.99058,4,1.37526,0,82,82,6,1,stimuli/objects/popcorn.jpg,right,new,167,,,,,,,,
,,,,,,,,6,2020-12-22_10h32.33.088,premce3DEU_ses-02_part-02_label-phase2,2020.1.2,Win32,60,right,2.69779,2,1.174995,0,83,83,34,1,stimuli/objects/shelves.jpg,left,old,195,,,,,,,,
,,,,,,,,6,2020-12-22_10h32.33.088,premce3DEU_ses-02_part-02_label-phase2,2020.1.2,Win32,60,right,3.07613,1,0.680105,0,84,84,90,1,stimuli/objects/battleaxe.jpg,left,old,251,,,,,,,,
,,,,,,,,6,2020-12-22_10h32.33.088,premce3DEU_ses-02_part-02_label-phase2,2020.1.2,Win32,60,right,0.924655,4,0.43689,0,85,85,61,1,stimuli/objects/parrot01.jpg,right,new,222,,,,,,,,
,,,,,,,,6,2020-12-22_10h32.33.088,premce3DEU_ses-02_part-02_label-phase2,2020.1.2,Win32,60,right,1.389875,3,0.370655,0,86,86,17,1,stimuli/objects/saltshaker03a.jpg,right,new,178,,,,,,,,
,,,,,,,,6,2020-12-22_10h32.33.088,premce3DEU_ses-02_part-02_label-phase2,2020.1.2,Win32,60,left,2.78126,4,0.60823,0,87,87,151,1,stimuli/objects/jellyfish.jpg,left,old,312,,,,,,,,
,,,,,,,,6,2020-12-22_10h32.33.088,premce3DEU_ses-02_part-02_label-phase2,2020.1.2,Win32,60,right,2.30435,3,0.690855,0,88,88,78,1,stimuli/objects/hockeypuck.jpg,left,old,239,,,,,,,,
,,,,,,,,6,2020-12-22_10h32.33.088,premce3DEU_ses-02_part-02_label-phase2,2020.1.2,Win32,60,right,0.76633,3,0.55466,0,89,89,48,1,stimuli/objects/rubikcube.jpg,right,new,209,,,,,,,,
,,,,,,,,6,2020-12-22_10h32.33.088,premce3DEU_ses-02_part-02_label-phase2,2020.1.2,Win32,60,right,2.895065,2,0.851035,0,90,90,74,1,stimuli/objects/turnstile.jpg,right,new,235,,,,,,,,
,,,,,,,,6,2020-12-22_10h32.33.088,premce3DEU_ses-02_part-02_label-phase2,2020.1.2,Win32,60,right,0.78918,3,0.354875,0,91,91,53,1,stimuli/objects/parachute.jpg,right,new,214,,,,,,,,
,,,,,,,,6,2020-12-22_10h32.33.088,premce3DEU_ses-02_part-02_label-phase2,2020.1.2,Win32,60,right,0.77567,3,0.44131,0,92,92,68,1,stimuli/objects/drumset.jpg,right,new,229,,,,,,,,
,,,,,,,,6,2020-12-22_10h32.33.088,premce3DEU_ses-02_part-02_label-phase2,2020.1.2,Win32,60,right,0.672845,2,0.454455,0,93,93,102,1,stimuli/objects/baseballglove.jpg,left,old,263,,,,,,,,
,,,,,,,,6,2020-12-22_10h32.33.088,premce3DEU_ses-02_part-02_label-phase2,2020.1.2,Win32,60,right,0.752975,2,0.37566,0,94,94,125,1,stimuli/objects/whiteout.jpg,left,old,286,,,,,,,,
,,,,,,,,6,2020-12-22_10h32.33.088,premce3DEU_ses-02_part-02_label-phase2,2020.1.2,Win32,60,right,0.72128,2,0.81852,0,95,95,20,1,stimuli/objects/toysoldier01b.jpg,right,new,181,,,,,,,,
,,,,,,,,6,2020-12-22_10h32.33.088,premce3DEU_ses-02_part-02_label-phase2,2020.1.2,Win32,60,right,0.720665,2,0.75045,0,96,96,97,1,stimuli/objects/greywolf.jpg,left,old,258,,,,,,,,
,,,,,,,,6,2020-12-22_10h32.33.088,premce3DEU_ses-02_part-02_label-phase2,2020.1.2,Win32,60,right,0.74401,3,0.35444,0,97,97,136,1,stimuli/objects/mouse.jpg,right,new,297,,,,,,,,
,,,,,,,,6,2020-12-22_10h32.33.088,premce3DEU_ses-02_part-02_label-phase2,2020.1.2,Win32,60,right,1.519,2,1.169085,0,98,98,117,1,stimuli/objects/fingerprint.jpg,left,old,278,,,,,,,,
,,,,,,,,6,2020-12-22_10h32.33.088,premce3DEU_ses-02_part-02_label-phase2,2020.1.2,Win32,60,right,1.39176,3,0.56557,0,99,99,124,1,stimuli/objects/swing.jpg,right,new,285,,,,,,,,
,,,,,,,,6,2020-12-22_10h32.33.088,premce3DEU_ses-02_part-02_label-phase2,2020.1.2,Win32,60,right,0.645155,3,0.422395,0,100,100,105,1,stimuli/objects/beerbottle.jpg,left,old,266,,,,,,,,
,,,,,,,,6,2020-12-22_10h32.33.088,premce3DEU_ses-02_part-02_label-phase2,2020.1.2,Win32,60,right,1.029615,2,0.645685,0,101,101,31,1,stimuli/objects/horseshoe.jpg,right,new,192,,,,,,,,
,,,,,,,,6,2020-12-22_10h32.33.088,premce3DEU_ses-02_part-02_label-phase2,2020.1.2,Win32,60,right,0.716315,1,1.080875,0,102,102,72,1,stimuli/objects/doghouse.jpg,left,old,233,,,,,,,,
,,,,,,,,6,2020-12-22_10h32.33.088,premce3DEU_ses-02_part-02_label-phase2,2020.1.2,Win32,60,right,1.12133,2,0.55309,0,103,103,63,1,stimuli/objects/pin.jpg,right,new,224,,,,,,,,
,,,,,,,,6,2020-12-22_10h32.33.088,premce3DEU_ses-02_part-02_label-phase2,2020.1.2,Win32,60,right,0.66594,3,1.90125,0,104,104,123,1,stimuli/objects/ironingboard01.jpg,left,old,284,,,,,,,,
,,,,,,,,6,2020-12-22_10h32.33.088,premce3DEU_ses-02_part-02_label-phase2,2020.1.2,Win32,60,left,2.61521,4,2.095585,0,105,105,79,1,stimuli/objects/polarbear.jpg,left,old,240,,,,,,,,
,,,,,,,,6,2020-12-22_10h32.33.088,premce3DEU_ses-02_part-02_label-phase2,2020.1.2,Win32,60,left,4.550935,1,0.88705,0,106,106,89,1,stimuli/objects/cruiseship.jpg,left,old,250,,,,,,,,
,,,,,,,,6,2020-12-22_10h32.33.088,premce3DEU_ses-02_part-02_label-phase2,2020.1.2,Win32,60,right,0.93039,3,0.421365,0,107,107,21,1,stimuli/objects/gorilla.jpg,right,new,182,,,,,,,,
,,,,,,,,6,2020-12-22_10h32.33.088,premce3DEU_ses-02_part-02_label-phase2,2020.1.2,Win32,60,left,5.566485,1,1.188325,0,108,108,56,1,stimuli/objects/toyanimal05.jpg,left,old,217,,,,,,,,
,,,,,,,,6,2020-12-22_10h32.33.088,premce3DEU_ses-02_part-02_label-phase2,2020.1.2,Win32,60,right,0.85986,2,0.56561,0,109,109,37,1,stimuli/objects/football.jpg,left,old,198,,,,,,,,
,,,,,,,,6,2020-12-22_10h32.33.088,premce3DEU_ses-02_part-02_label-phase2,2020.1.2,Win32,60,right,4.50196,1,0.431375,0,110,110,103,1,stimuli/objects/seagull.jpg,left,old,264,,,,,,,,
,,,,,,,,6,2020-12-22_10h32.33.088,premce3DEU_ses-02_part-02_label-phase2,2020.1.2,Win32,60,left,2.57564,1,0.34526,0,111,111,7,1,stimuli/objects/bolt01a.jpg,left,old,168,,,,,,,,
,,,,,,,,6,2020-12-22_10h32.33.088,premce3DEU_ses-02_part-02_label-phase2,2020.1.2,Win32,60,right,1.07571,3,2.145915,0,112,112,119,1,stimuli/objects/sandbarshark.jpg,right,new,280,,,,,,,,
,,,,,,,,6,2020-12-22_10h32.33.088,premce3DEU_ses-02_part-02_label-phase2,2020.1.2,Win32,60,right,0.886245,3,1.30881,0,113,113,23,1,stimuli/objects/graduationcap.jpg,right,new,184,,,,,,,,
,,,,,,,,6,2020-12-22_10h32.33.088,premce3DEU_ses-02_part-02_label-phase2,2020.1.2,Win32,60,right,2.23609,3,0.557695,0,114,114,81,1,stimuli/objects/raccoon.jpg,right,new,242,,,,,,,,
,,,,,,,,6,2020-12-22_10h32.33.088,premce3DEU_ses-02_part-02_label-phase2,2020.1.2,Win32,60,right,0.6563,2,0.420465,0,115,115,120,1,stimuli/objects/airhockeytable.jpg,right,new,281,,,,,,,,
,,,,,,,,6,2020-12-22_10h32.33.088,premce3DEU_ses-02_part-02_label-phase2,2020.1.2,Win32,60,right,0.9742,3,0.618595,0,116,116,152,1,stimuli/objects/harmonica.jpg,right,new,313,,,,,,,,
,,,,,,,,6,2020-12-22_10h32.33.088,premce3DEU_ses-02_part-02_label-phase2,2020.1.2,Win32,60,right,0.81453,2,0.86707,0,117,117,85,1,stimuli/objects/skiboot01a.jpg,left,old,246,,,,,,,,
,,,,,,,,6,2020-12-22_10h32.33.088,premce3DEU_ses-02_part-02_label-phase2,2020.1.2,Win32,60,right,0.667675,1,3.16534,0,118,118,98,1,stimuli/objects/cashregister01.jpg,left,old,259,,,,,,,,
,,,,,,,,6,2020-12-22_10h32.33.088,premce3DEU_ses-02_part-02_label-phase2,2020.1.2,Win32,60,right,1.235075,4,1.582715,0,119,119,16,1,stimuli/objects/dartboard.jpg,left,old,177,,,,,,,,
,,,,,,,,6,2020-12-22_10h32.33.088,premce3DEU_ses-02_part-02_label-phase2,2020.1.2,Win32,60,left,4.83723,1,0.51782,0,120,120,92,1,stimuli/objects/mirror02.jpg,left,old,253,,,,,,,,
,,,,,,,,6,2020-12-22_10h32.33.088,premce3DEU_ses-02_part-02_label-phase2,2020.1.2,Win32,60,right,0.92146,3,0.663405,0,121,121,41,1,stimuli/objects/zebra.jpg,left,old,202,,,,,,,,
,,,,,,,,6,2020-12-22_10h32.33.088,premce3DEU_ses-02_part-02_label-phase2,2020.1.2,Win32,60,right,0.99195,2,2.309575,0,122,122,38,1,stimuli/objects/bread.jpg,right,new,199,,,,,,,,
,,,,,,,,6,2020-12-22_10h32.33.088,premce3DEU_ses-02_part-02_label-phase2,2020.1.2,Win32,60,right,3.32939,1,1.210605,0,123,123,153,1,stimuli/objects/fluorescentlightbulb.jpg,left,old,314,,,,,,,,
,,,,,,,,6,2020-12-22_10h32.33.088,premce3DEU_ses-02_part-02_label-phase2,2020.1.2,Win32,60,right,0.853715,2,0.82349,0,124,124,87,1,stimuli/objects/chipmunk.jpg,left,old,248,,,,,,,,
,,,,,,,,6,2020-12-22_10h32.33.088,premce3DEU_ses-02_part-02_label-phase2,2020.1.2,Win32,60,right,1.012525,2,0.3753,0,125,125,159,1,stimuli/objects/footballhelmet.jpg,left,old,320,,,,,,,,
,,,,,,,,6,2020-12-22_10h32.33.088,premce3DEU_ses-02_part-02_label-phase2,2020.1.2,Win32,60,right,2.422675,2,0.40568,0,126,126,150,1,stimuli/objects/strap.jpg,right,new,311,,,,,,,,
,,,,,,,,6,2020-12-22_10h32.33.088,premce3DEU_ses-02_part-02_label-phase2,2020.1.2,Win32,60,right,0.73912,2,0.54279,0,127,127,18,1,stimuli/objects/showerhead01.jpg,left,old,179,,,,,,,,
,,,,,,,,6,2020-12-22_10h32.33.088,premce3DEU_ses-02_part-02_label-phase2,2020.1.2,Win32,60,left,14.068885,1,0.762375,0,128,128,129,1,stimuli/objects/escalator.jpg,left,old,290,,,,,,,,
,,,,,,,,6,2020-12-22_10h32.33.088,premce3DEU_ses-02_part-02_label-phase2,2020.1.2,Win32,60,left,5.43329,1,0.63936,0,129,129,80,1,stimuli/objects/floorlamp.jpg,right,new,241,,,,,,,,
,,,,,,,,6,2020-12-22_10h32.33.088,premce3DEU_ses-02_part-02_label-phase2,2020.1.2,Win32,60,right,0.942695,3,1.159695,0,130,130,29,1,stimuli/objects/steeringwheel.jpg,right,new,190,,,,,,,,
,,,,,,,,6,2020-12-22_10h32.33.088,premce3DEU_ses-02_part-02_label-phase2,2020.1.2,Win32,60,right,0.731635,3,0.432785,0,131,131,33,1,stimuli/objects/noparkingsign.jpg,right,new,194,,,,,,,,
,,,,,,,,6,2020-12-22_10h32.33.088,premce3DEU_ses-02_part-02_label-phase2,2020.1.2,Win32,60,left,1.522565,1,0.27799,0,132,132,111,1,stimuli/objects/jellybean.jpg,left,old,272,,,,,,,,
,,,,,,,,6,2020-12-22_10h32.33.088,premce3DEU_ses-02_part-02_label-phase2,2020.1.2,Win32,60,right,1.054695,2,2.29555,0,133,133,112,1,stimuli/objects/hotdog.jpg,left,old,273,,,,,,,,
,,,,,,,,6,2020-12-22_10h32.33.088,premce3DEU_ses-02_part-02_label-phase2,2020.1.2,Win32,60,right,0.94782,4,0.367305,0,134,134,2,1,stimuli/objects/moon.jpg,left,old,163,,,,,,,,
,,,,,,,,6,2020-12-22_10h32.33.088,premce3DEU_ses-02_part-02_label-phase2,2020.1.2,Win32,60,right,1.21419,1,0.436265,0,135,135,116,1,stimuli/objects/rollerblade.jpg,left,old,277,,,,,,,,
,,,,,,,,6,2020-12-22_10h32.33.088,premce3DEU_ses-02_part-02_label-phase2,2020.1.2,Win32,60,right,1.038285,3,1.25547,0,136,136,9,1,stimuli/objects/flag.jpg,right,new,170,,,,,,,,
,,,,,,,,6,2020-12-22_10h32.33.088,premce3DEU_ses-02_part-02_label-phase2,2020.1.2,Win32,60,right,1.14862,1,2.091955,0,137,137,43,1,stimuli/objects/poolcue.jpg,right,new,204,,,,,,,,
,,,,,,,,6,2020-12-22_10h32.33.088,premce3DEU_ses-02_part-02_label-phase2,2020.1.2,Win32,60,right,0.87231,2,0.59658,0,138,138,64,1,stimuli/objects/trojanhorse.jpg,right,new,225,,,,,,,,
,,,,,,,,6,2020-12-22_10h32.33.088,premce3DEU_ses-02_part-02_label-phase2,2020.1.2,Win32,60,left,3.2295,4,0.729085,0,139,139,42,1,stimuli/objects/asianelephant.jpg,left,old,203,,,,,,,,
,,,,,,,,6,2020-12-22_10h32.33.088,premce3DEU_ses-02_part-02_label-phase2,2020.1.2,Win32,60,right,0.963095,1,5.788075,0,140,140,26,1,stimuli/objects/schoolbus.jpg,right,new,187,,,,,,,,
,,,,,,,,6,2020-12-22_10h32.33.088,premce3DEU_ses-02_part-02_label-phase2,2020.1.2,Win32,60,right,1.54408,4,1.151475,0,141,141,51,1,stimuli/objects/kangaroo01.jpg,right,new,212,,,,,,,,
,,,,,,,,6,2020-12-22_10h32.33.088,premce3DEU_ses-02_part-02_label-phase2,2020.1.2,Win32,60,right,1.504245,2,0.67371,0,142,142,128,1,stimuli/objects/chime.jpg,left,old,289,,,,,,,,
,,,,,,,,6,2020-12-22_10h32.33.088,premce3DEU_ses-02_part-02_label-phase2,2020.1.2,Win32,60,left,4.300485,4,0.716365,0,143,143,49,1,stimuli/objects/surfboard.jpg,left,old,210,,,,,,,,
,,,,,,,,6,2020-12-22_10h32.33.088,premce3DEU_ses-02_part-02_label-phase2,2020.1.2,Win32,60,right,9.28593,1,0.606955,0,144,144,50,1,stimuli/objects/cowbell.jpg,right,new,211,,,,,,,,
,,,,,,,,6,2020-12-22_10h32.33.088,premce3DEU_ses-02_part-02_label-phase2,2020.1.2,Win32,60,left,5.544355,1,0.54273,0,145,145,155,1,stimuli/objects/fishingrod.jpg,left,old,316,,,,,,,,
,,,,,,,,6,2020-12-22_10h32.33.088,premce3DEU_ses-02_part-02_label-phase2,2020.1.2,Win32,60,right,0.73843,2,0.789,0,146,146,39,1,stimuli/objects/desktopcomputer.jpg,left,old,200,,,,,,,,
,,,,,,,,6,2020-12-22_10h32.33.088,premce3DEU_ses-02_part-02_label-phase2,2020.1.2,Win32,60,left,8.196915,1,1.15859,0,147,147,13,1,stimuli/objects/sailboat.jpg,left,old,174,,,,,,,,
,,,,,,,,6,2020-12-22_10h32.33.088,premce3DEU_ses-02_part-02_label-phase2,2020.1.2,Win32,60,right,0.96544,1,0.55885,0,148,148,142,1,stimuli/objects/lightswitch01.jpg,left,old,303,,,,,,,,
,,,,,,,,6,2020-12-22_10h32.33.088,premce3DEU_ses-02_part-02_label-phase2,2020.1.2,Win32,60,right,1.556265,1,0.295325,0,149,149,30,1,stimuli/objects/key07.jpg,left,old,191,,,,,,,,
,,,,,,,,6,2020-12-22_10h32.33.088,premce3DEU_ses-02_part-02_label-phase2,2020.1.2,Win32,60,right,1.10183,4,0.294355,0,150,150,138,1,stimuli/objects/ladybug03.jpg,right,new,299,,,,,,,,
,,,,,,,,6,2020-12-22_10h32.33.088,premce3DEU_ses-02_part-02_label-phase2,2020.1.2,Win32,60,right,0.65022,4,0.569965,0,151,151,143,1,stimuli/objects/taxisign.jpg,right,new,304,,,,,,,,
,,,,,,,,6,2020-12-22_10h32.33.088,premce3DEU_ses-02_part-02_label-phase2,2020.1.2,Win32,60,right,1.30535,4,0.581545,0,152,152,133,1,stimuli/objects/kiwi03.jpg,right,new,294,,,,,,,,
,,,,,,,,6,2020-12-22_10h32.33.088,premce3DEU_ses-02_part-02_label-phase2,2020.1.2,Win32,60,right,1.152255,2,0.501615,0,153,153,156,1,stimuli/objects/shovel01.jpg,left,old,317,,,,,,,,
,,,,,,,,6,2020-12-22_10h32.33.088,premce3DEU_ses-02_part-02_label-phase2,2020.1.2,Win32,60,right,0.772055,4,1.62118,0,154,154,83,1,stimuli/objects/recyclingbin.jpg,left,old,244,,,,,,,,
,,,,,,,,6,2020-12-22_10h32.33.088,premce3DEU_ses-02_part-02_label-phase2,2020.1.2,Win32,60,right,1.10579,3,2.843785,0,155,155,60,1,stimuli/objects/hammerheadshark.jpg,right,new,221,,,,,,,,
,,,,,,,,6,2020-12-22_10h32.33.088,premce3DEU_ses-02_part-02_label-phase2,2020.1.2,Win32,60,right,0.769095,2,1.3078,0,156,156,71,1,stimuli/objects/tennisracket.jpg,right,new,232,,,,,,,,
,,,,,,,,6,2020-12-22_10h32.33.088,premce3DEU_ses-02_part-02_label-phase2,2020.1.2,Win32,60,right,0.765375,2,1.013365,0,157,157,73,1,stimuli/objects/barrel01.jpg,left,old,234,,,,,,,,
,,,,,,,,6,2020-12-22_10h32.33.088,premce3DEU_ses-02_part-02_label-phase2,2020.1.2,Win32,60,right,3.762535,1,0.619745,0,158,158,154,1,stimuli/objects/frisbee.jpg,left,old,315,,,,,,,,
,,,,,,,,6,2020-12-22_10h32.33.088,premce3DEU_ses-02_part-02_label-phase2,2020.1.2,Win32,60,right,0.60481,2,1.46743,0,159,159,35,1,stimuli/objects/xylophone.jpg,left,old,196,,,,,,,,
,,,,,,,,6,2020-12-22_10h32.33.088,premce3DEU_ses-02_part-02_label-phase2,2020.1.2,Win32,60,,,,,,,,,,,,,,space,26.79437,0,0,0,1,1,ImagesforRecog2.csv
,,,,,,,,6,2020-12-22_10h32.33.088,premce3DEU_ses-02_part-02_label-phase2,2020.1.2,Win32,60,left,6.68953,3,1.210035,0,0,0,103,1,stimuli/objects/salmon.jpg,left,old,104,,,,,,,,
,,,,,,,,6,2020-12-22_10h32.33.088,premce3DEU_ses-02_part-02_label-phase2,2020.1.2,Win32,60,right,4.12429,2,0.34573,0,1,1,25,1,stimuli/objects/honeycomb.jpg,right,new,26,,,,,,,,
,,,,,,,,6,2020-12-22_10h32.33.088,premce3DEU_ses-02_part-02_label-phase2,2020.1.2,Win32,60,right,1.288035,2,0.62625,0,2,2,59,1,stimuli/objects/birdhouse.jpg,right,new,60,,,,,,,,
,,,,,,,,6,2020-12-22_10h32.33.088,premce3DEU_ses-02_part-02_label-phase2,2020.1.2,Win32,60,right,0.797665,3,0.51034,0,3,3,128,1,stimuli/objects/makiroll.jpg,right,new,129,,,,,,,,
,,,,,,,,6,2020-12-22_10h32.33.088,premce3DEU_ses-02_part-02_label-phase2,2020.1.2,Win32,60,right,0.874755,1,18.04214,0,4,4,150,1,stimuli/objects/eiffeltower.jpg,right,new,151,,,,,,,,
,,,,,,,,6,2020-12-22_10h32.33.088,premce3DEU_ses-02_part-02_label-phase2,2020.1.2,Win32,60,right,3.29906,2,1.10277,0,5,5,138,1,stimuli/objects/cow.jpg,right,new,139,,,,,,,,
,,,,,,,,6,2020-12-22_10h32.33.088,premce3DEU_ses-02_part-02_label-phase2,2020.1.2,Win32,60,right,0.987965,2,0.49465,0,6,6,129,1,stimuli/objects/lawnmower.jpg,right,new,130,,,,,,,,
,,,,,,,,6,2020-12-22_10h32.33.088,premce3DEU_ses-02_part-02_label-phase2,2020.1.2,Win32,60,right,0.70869,3,1.06723,0,7,7,82,1,stimuli/objects/crown.jpg,left,old,83,,,,,,,,
,,,,,,,,6,2020-12-22_10h32.33.088,premce3DEU_ses-02_part-02_label-phase2,2020.1.2,Win32,60,right,1.1328,3,0.33128,0,8,8,30,1,stimuli/objects/fortunecookie.jpg,right,new,31,,,,,,,,
,,,,,,,,6,2020-12-22_10h32.33.088,premce3DEU_ses-02_part-02_label-phase2,2020.1.2,Win32,60,left,4.214265,1,0.494675,0,9,9,120,1,stimuli/objects/panda.jpg,left,old,121,,,,,,,,
,,,,,,,,6,2020-12-22_10h32.33.088,premce3DEU_ses-02_part-02_label-phase2,2020.1.2,Win32,60,right,1.018795,2,1.67646,0,10,10,15,1,stimuli/objects/dromedary.jpg,left,old,16,,,,,,,,
,,,,,,,,6,2020-12-22_10h32.33.088,premce3DEU_ses-02_part-02_label-phase2,2020.1.2,Win32,60,right,0.82699,2,0.50151,0,11,11,43,1,stimuli/objects/ostrich.jpg,right,new,44,,,,,,,,
,,,,,,,,6,2020-12-22_10h32.33.088,premce3DEU_ses-02_part-02_label-phase2,2020.1.2,Win32,60,right,2.29899,1,0.665805,0,12,12,0,1,stimuli/objects/treestump.jpg,left,old,1,,,,,,,,
,,,,,,,,6,2020-12-22_10h32.33.088,premce3DEU_ses-02_part-02_label-phase2,2020.1.2,Win32,60,right,0.733115,2,0.438195,0,13,13,98,1,stimuli/objects/handbrush02.jpg,left,old,99,,,,,,,,
,,,,,,,,6,2020-12-22_10h32.33.088,premce3DEU_ses-02_part-02_label-phase2,2020.1.2,Win32,60,left,3.34577,2,0.708205,0,14,14,18,1,stimuli/objects/pingpongtable.jpg,right,new,19,,,,,,,,
,,,,,,,,6,2020-12-22_10h32.33.088,premce3DEU_ses-02_part-02_label-phase2,2020.1.2,Win32,60,right,0.674305,3,0.36693,0,15,15,6,1,stimuli/objects/pumpkin.jpg,left,old,7,,,,,,,,
,,,,,,,,6,2020-12-22_10h32.33.088,premce3DEU_ses-02_part-02_label-phase2,2020.1.2,Win32,60,right,3.773325,3,0.44288,0,16,16,71,1,stimuli/objects/bed.jpg,right,new,72,,,,,,,,
,,,,,,,,6,2020-12-22_10h32.33.088,premce3DEU_ses-02_part-02_label-phase2,2020.1.2,Win32,60,right,0.88687,3,0.40399,0,17,17,39,1,stimuli/objects/electrictoothbrush01c.jpg,right,new,40,,,,,,,,
,,,,,,,,6,2020-12-22_10h32.33.088,premce3DEU_ses-02_part-02_label-phase2,2020.1.2,Win32,60,right,0.86612,3,0.310245,0,18,18,133,1,stimuli/objects/sink.jpg,right,new,134,,,,,,,,
,,,,,,,,6,2020-12-22_10h32.33.088,premce3DEU_ses-02_part-02_label-phase2,2020.1.2,Win32,60,right,0.868425,2,0.920545,0,19,19,49,1,stimuli/objects/triangle.jpg,left,old,50,,,,,,,,
,,,,,,,,6,2020-12-22_10h32.33.088,premce3DEU_ses-02_part-02_label-phase2,2020.1.2,Win32,60,right,1.016145,2,0.886935,0,20,20,69,1,stimuli/objects/granolabar01.jpg,left,old,70,,,,,,,,
,,,,,,,,6,2020-12-22_10h32.33.088,premce3DEU_ses-02_part-02_label-phase2,2020.1.2,Win32,60,right,1.503515,1,1.56835,0,21,21,158,1,stimuli/objects/watercooler.jpg,right,new,159,,,,,,,,
,,,,,,,,6,2020-12-22_10h32.33.088,premce3DEU_ses-02_part-02_label-phase2,2020.1.2,Win32,60,right,3.26928,2,0.667195,0,22,22,13,1,stimuli/objects/tower.jpg,right,new,14,,,,,,,,
,,,,,,,,6,2020-12-22_10h32.33.088,premce3DEU_ses-02_part-02_label-phase2,2020.1.2,Win32,60,right,0.80816,2,0.301545,0,23,23,56,1,stimuli/objects/jeans01.jpg,left,old,57,,,,,,,,
,,,,,,,,6,2020-12-22_10h32.33.088,premce3DEU_ses-02_part-02_label-phase2,2020.1.2,Win32,60,right,0.941295,2,0.40226,0,24,24,113,1,stimuli/objects/shoppingcart.jpg,right,new,114,,,,,,,,
,,,,,,,,6,2020-12-22_10h32.33.088,premce3DEU_ses-02_part-02_label-phase2,2020.1.2,Win32,60,right,2.117495,1,0.485285,0,25,25,148,1,stimuli/objects/peacock.jpg,right,new,149,,,,,,,,
,,,,,,,,6,2020-12-22_10h32.33.088,premce3DEU_ses-02_part-02_label-phase2,2020.1.2,Win32,60,right,2.698555,2,0.24754,0,26,26,5,1,stimuli/objects/horse.jpg,left,old,6,,,,,,,,
,,,,,,,,6,2020-12-22_10h32.33.088,premce3DEU_ses-02_part-02_label-phase2,2020.1.2,Win32,60,right,0.85436,2,0.51956,0,27,27,117,1,stimuli/objects/bull.jpg,right,new,118,,,,,,,,
,,,,,,,,6,2020-12-22_10h32.33.088,premce3DEU_ses-02_part-02_label-phase2,2020.1.2,Win32,60,right,0.705815,3,0.30501,0,28,28,46,1,stimuli/objects/entrancegate.jpg,right,new,47,,,,,,,,
,,,,,,,,6,2020-12-22_10h32.33.088,premce3DEU_ses-02_part-02_label-phase2,2020.1.2,Win32,60,right,1.77173,2,0.23994,0,29,29,35,1,stimuli/objects/skihelmet01.jpg,left,old,36,,,,,,,,
,,,,,,,,6,2020-12-22_10h32.33.088,premce3DEU_ses-02_part-02_label-phase2,2020.1.2,Win32,60,right,0.85339,2,0.309885,0,30,30,10,1,stimuli/objects/tablesaw.jpg,right,new,11,,,,,,,,
,,,,,,,,6,2020-12-22_10h32.33.088,premce3DEU_ses-02_part-02_label-phase2,2020.1.2,Win32,60,right,0.723355,3,0.756,0,31,31,140,1,stimuli/objects/exitsign.jpg,left,old,141,,,,,,,,
,,,,,,,,6,2020-12-22_10h32.33.088,premce3DEU_ses-02_part-02_label-phase2,2020.1.2,Win32,60,right,0.675235,2,1.52828,0,32,32,37,1,stimuli/objects/golfball.jpg,left,old,38,,,,,,,,
,,,,,,,,6,2020-12-22_10h32.33.088,premce3DEU_ses-02_part-02_label-phase2,2020.1.2,Win32,60,right,0.825535,2,0.392165,0,33,33,139,1,stimuli/objects/safe.jpg,right,new,140,,,,,,,,
,,,,,,,,6,2020-12-22_10h32.33.088,premce3DEU_ses-02_part-02_label-phase2,2020.1.2,Win32,60,right,0.830905,1,2.86077,0,34,34,109,1,stimuli/objects/webcam.jpg,right,new,110,,,,,,,,
,,,,,,,,6,2020-12-22_10h32.33.088,premce3DEU_ses-02_part-02_label-phase2,2020.1.2,Win32,60,right,0.760755,4,0.652045,0,35,35,92,1,stimuli/objects/armchair02.jpg,right,new,93,,,,,,,,
,,,,,,,,6,2020-12-22_10h32.33.088,premce3DEU_ses-02_part-02_label-phase2,2020.1.2,Win32,60,left,3.28826,4,0.4173,0,36,36,135,1,stimuli/objects/basketball01.jpg,left,old,136,,,,,,,,
,,,,,,,,6,2020-12-22_10h32.33.088,premce3DEU_ses-02_part-02_label-phase2,2020.1.2,Win32,60,right,0.7865,3,0.470025,0,37,37,119,1,stimuli/objects/kite.jpg,right,new,120,,,,,,,,
,,,,,,,,6,2020-12-22_10h32.33.088,premce3DEU_ses-02_part-02_label-phase2,2020.1.2,Win32,60,right,0.735165,2,0.83924,0,38,38,137,1,stimuli/objects/brownsugar.jpg,left,old,138,,,,,,,,
,,,,,,,,6,2020-12-22_10h32.33.088,premce3DEU_ses-02_part-02_label-phase2,2020.1.2,Win32,60,right,0.786245,1,0.43899,0,39,39,74,1,stimuli/objects/windturbine.jpg,left,old,75,,,,,,,,
,,,,,,,,6,2020-12-22_10h32.33.088,premce3DEU_ses-02_part-02_label-phase2,2020.1.2,Win32,60,right,2.15962,3,1.10018,0,40,40,85,1,stimuli/objects/bridge.jpg,right,new,86,,,,,,,,
,,,,,,,,6,2020-12-22_10h32.33.088,premce3DEU_ses-02_part-02_label-phase2,2020.1.2,Win32,60,right,1.03208,2,0.518585,0,41,41,155,1,stimuli/objects/calendar.jpg,right,new,156,,,,,,,,
,,,,,,,,6,2020-12-22_10h32.33.088,premce3DEU_ses-02_part-02_label-phase2,2020.1.2,Win32,60,right,4.68173,1,2.30877,0,42,42,32,1,stimuli/objects/moth.jpg,right,new,33,,,,,,,,
,,,,,,,,6,2020-12-22_10h32.33.088,premce3DEU_ses-02_part-02_label-phase2,2020.1.2,Win32,60,right,0.702315,1,12.85428,0,43,43,7,1,stimuli/objects/redonion.jpg,left,old,8,,,,,,,,
,,,,,,,,6,2020-12-22_10h32.33.088,premce3DEU_ses-02_part-02_label-phase2,2020.1.2,Win32,60,left,2.69251,1,1.67463,0,44,44,102,1,stimuli/objects/forklift.jpg,left,old,103,,,,,,,,
,,,,,,,,6,2020-12-22_10h32.33.088,premce3DEU_ses-02_part-02_label-phase2,2020.1.2,Win32,60,left,1.670645,3,0.825595,0,45,45,50,1,stimuli/objects/lionstatue.jpg,left,old,51,,,,,,,,
,,,,,,,,6,2020-12-22_10h32.33.088,premce3DEU_ses-02_part-02_label-phase2,2020.1.2,Win32,60,right,0.978755,2,0.834645,0,46,46,152,1,stimuli/objects/urinal.jpg,left,old,153,,,,,,,,
,,,,,,,,6,2020-12-22_10h32.33.088,premce3DEU_ses-02_part-02_label-phase2,2020.1.2,Win32,60,right,1.14865,2,0.375255,0,47,47,145,1,stimuli/objects/church.jpg,right,new,146,,,,,,,,
,,,,,,,,6,2020-12-22_10h32.33.088,premce3DEU_ses-02_part-02_label-phase2,2020.1.2,Win32,60,right,3.46059,2,0.400885,0,48,48,9,1,stimuli/objects/rose.jpg,right,new,10,,,,,,,,
,,,,,,,,6,2020-12-22_10h32.33.088,premce3DEU_ses-02_part-02_label-phase2,2020.1.2,Win32,60,right,1.17197,2,0.605345,0,49,49,3,1,stimuli/objects/vacuumcleaner01.jpg,left,old,4,,,,,,,,
,,,,,,,,6,2020-12-22_10h32.33.088,premce3DEU_ses-02_part-02_label-phase2,2020.1.2,Win32,60,left,1.16842,3,0.53918,0,50,50,14,1,stimuli/objects/canoepaddle02.jpg,left,old,15,,,,,,,,
,,,,,,,,6,2020-12-22_10h32.33.088,premce3DEU_ses-02_part-02_label-phase2,2020.1.2,Win32,60,right,3.3,1,0.409735,0,51,51,45,1,stimuli/objects/fridge.jpg,left,old,46,,,,,,,,
,,,,,,,,6,2020-12-22_10h32.33.088,premce3DEU_ses-02_part-02_label-phase2,2020.1.2,Win32,60,right,0.798905,2,0.61932,0,52,52,34,1,stimuli/objects/aquarium.jpg,left,old,35,,,,,,,,
,,,,,,,,6,2020-12-22_10h32.33.088,premce3DEU_ses-02_part-02_label-phase2,2020.1.2,Win32,60,right,0.834825,2,0.354465,0,53,53,62,1,stimuli/objects/trophy01.jpg,left,old,63,,,,,,,,
,,,,,,,,6,2020-12-22_10h32.33.088,premce3DEU_ses-02_part-02_label-phase2,2020.1.2,Win32,60,right,3.2226,1,0.824335,0,54,54,16,1,stimuli/objects/cactus.jpg,left,old,17,,,,,,,,
,,,,,,,,6,2020-12-22_10h32.33.088,premce3DEU_ses-02_part-02_label-phase2,2020.1.2,Win32,60,right,1.11114,3,0.384585,0,55,55,73,1,stimuli/objects/guitarcase.jpg,right,new,74,,,,,,,,
,,,,,,,,6,2020-12-22_10h32.33.088,premce3DEU_ses-02_part-02_label-phase2,2020.1.2,Win32,60,left,3.401415,1,0.35788,0,56,56,116,1,stimuli/objects/toucan.jpg,right,new,117,,,,,,,,
,,,,,,,,6,2020-12-22_10h32.33.088,premce3DEU_ses-02_part-02_label-phase2,2020.1.2,Win32,60,left,2.99244,4,0.410025,0,57,57,130,1,stimuli/objects/tulip02.jpg,left,old,131,,,,,,,,
,,,,,,,,6,2020-12-22_10h32.33.088,premce3DEU_ses-02_part-02_label-phase2,2020.1.2,Win32,60,left,1.36679,4,0.397005,0,58,58,61,1,stimuli/objects/jokercard.jpg,left,old,62,,,,,,,,
,,,,,,,,6,2020-12-22_10h32.33.088,premce3DEU_ses-02_part-02_label-phase2,2020.1.2,Win32,60,right,1.217725,2,0.868045,0,59,59,17,1,stimuli/objects/parkingmeter.jpg,right,new,18,,,,,,,,
,,,,,,,,6,2020-12-22_10h32.33.088,premce3DEU_ses-02_part-02_label-phase2,2020.1.2,Win32,60,right,1.46687,2,1.07164,0,60,60,134,1,stimuli/objects/nunchuk.jpg,right,new,135,,,,,,,,
,,,,,,,,6,2020-12-22_10h32.33.088,premce3DEU_ses-02_part-02_label-phase2,2020.1.2,Win32,60,right,1.00549,2,1.47761,0,61,61,2,1,stimuli/objects/table01.jpg,left,old,3,,,,,,,,
,,,,,,,,6,2020-12-22_10h32.33.088,premce3DEU_ses-02_part-02_label-phase2,2020.1.2,Win32,60,right,1.198615,2,0.35924,0,62,62,86,1,stimuli/objects/chimney.jpg,right,new,87,,,,,,,,
,,,,,,,,6,2020-12-22_10h32.33.088,premce3DEU_ses-02_part-02_label-phase2,2020.1.2,Win32,60,right,1.537595,2,0.584685,0,63,63,97,1,stimuli/objects/dreamcatcher.jpg,left,old,98,,,,,,,,
,,,,,,,,6,2020-12-22_10h32.33.088,premce3DEU_ses-02_part-02_label-phase2,2020.1.2,Win32,60,right,0.877675,2,0.405505,0,64,64,118,1,stimuli/objects/microwave.jpg,left,old,119,,,,,,,,
,,,,,,,,6,2020-12-22_10h32.33.088,premce3DEU_ses-02_part-02_label-phase2,2020.1.2,Win32,60,right,1.011755,3,0.3032,0,65,65,127,1,stimuli/objects/sausage.jpg,left,old,128,,,,,,,,
,,,,,,,,6,2020-12-22_10h32.33.088,premce3DEU_ses-02_part-02_label-phase2,2020.1.2,Win32,60,right,0.771215,2,1.060535,0,66,66,48,1,stimuli/objects/bowlingpin.jpg,left,old,49,,,,,,,,
,,,,,,,,6,2020-12-22_10h32.33.088,premce3DEU_ses-02_part-02_label-phase2,2020.1.2,Win32,60,right,0.820405,2,0.708925,0,67,67,77,1,stimuli/objects/fishskeleton.jpg,left,old,78,,,,,,,,
,,,,,,,,6,2020-12-22_10h32.33.088,premce3DEU_ses-02_part-02_label-phase2,2020.1.2,Win32,60,right,0.72152,2,0.43742,0,68,68,66,1,stimuli/objects/shipinabottle.jpg,right,new,67,,,,,,,,
,,,,,,,,6,2020-12-22_10h32.33.088,premce3DEU_ses-02_part-02_label-phase2,2020.1.2,Win32,60,right,1.61131,3,0.383535,0,69,69,153,1,stimuli/objects/coffeemachine.jpg,left,old,154,,,,,,,,
,,,,,,,,6,2020-12-22_10h32.33.088,premce3DEU_ses-02_part-02_label-phase2,2020.1.2,Win32,60,left,2.4859,4,0.41791,0,70,70,28,1,stimuli/objects/seaturtle.jpg,left,old,29,,,,,,,,
,,,,,,,,6,2020-12-22_10h32.33.088,premce3DEU_ses-02_part-02_label-phase2,2020.1.2,Win32,60,right,0.9086,2,1.321785,0,71,71,122,1,stimuli/objects/soccerball.jpg,left,old,123,,,,,,,,
,,,,,,,,6,2020-12-22_10h32.33.088,premce3DEU_ses-02_part-02_label-phase2,2020.1.2,Win32,60,right,0.79366,3,0.310635,0,72,72,101,1,stimuli/objects/apron.jpg,left,old,102,,,,,,,,
,,,,,,,,6,2020-12-22_10h32.33.088,premce3DEU_ses-02_part-02_label-phase2,2020.1.2,Win32,60,right,1.245475,3,0.82602,0,73,73,126,1,stimuli/objects/bat.jpg,right,new,127,,,,,,,,
,,,,,,,,6,2020-12-22_10h32.33.088,premce3DEU_ses-02_part-02_label-phase2,2020.1.2,Win32,60,right,1.09357,2,0.98922,0,74,74,70,1,stimuli/objects/balcony02.jpg,left,old,71,,,,,,,,
,,,,,,,,6,2020-12-22_10h32.33.088,premce3DEU_ses-02_part-02_label-phase2,2020.1.2,Win32,60,right,0.911855,2,0.31797,0,75,75,20,1,stimuli/objects/accordion01.jpg,right,new,21,,,,,,,,
,,,,,,,,6,2020-12-22_10h32.33.088,premce3DEU_ses-02_part-02_label-phase2,2020.1.2,Win32,60,left,1.83848,4,0.503695,0,76,76,88,1,stimuli/objects/jackrabbit.jpg,left,old,89,,,,,,,,
,,,,,,,,6,2020-12-22_10h32.33.088,premce3DEU_ses-02_part-02_label-phase2,2020.1.2,Win32,60,left,3.082955,1,0.461385,0,77,77,156,1,stimuli/objects/skateboard.jpg,left,old,157,,,,,,,,
,,,,,,,,6,2020-12-22_10h32.33.088,premce3DEU_ses-02_part-02_label-phase2,2020.1.2,Win32,60,left,1.227985,4,0.90856,0,78,78,68,1,stimuli/objects/cuttlefish.jpg,left,old,69,,,,,,,,
,,,,,,,,6,2020-12-22_10h32.33.088,premce3DEU_ses-02_part-02_label-phase2,2020.1.2,Win32,60,right,1.08843,2,0.599055,0,79,79,93,1,stimuli/objects/discoball.jpg,right,new,94,,,,,,,,
,,,,,,,,6,2020-12-22_10h32.33.088,premce3DEU_ses-02_part-02_label-phase2,2020.1.2,Win32,60,left,1.967575,4,0.388915,0,80,80,12,1,stimuli/objects/pigeon.jpg,right,new,13,,,,,,,,
,,,,,,,,6,2020-12-22_10h32.33.088,premce3DEU_ses-02_part-02_label-phase2,2020.1.2,Win32,60,right,0.78461,3,0.27279,0,81,81,41,1,stimuli/objects/faxmachine.jpg,right,new,42,,,,,,,,
,,,,,,,,6,2020-12-22_10h32.33.088,premce3DEU_ses-02_part-02_label-phase2,2020.1.2,Win32,60,right,0.74459,3,0.29209,0,82,82,83,1,stimuli/objects/flugglehorn.jpg,right,new,84,,,,,,,,
,,,,,,,,6,2020-12-22_10h32.33.088,premce3DEU_ses-02_part-02_label-phase2,2020.1.2,Win32,60,right,0.667195,2,0.4939,0,83,83,47,1,stimuli/objects/stepladder.jpg,left,old,48,,,,,,,,
,,,,,,,,6,2020-12-22_10h32.33.088,premce3DEU_ses-02_part-02_label-phase2,2020.1.2,Win32,60,right,0.7773,2,0.401985,0,84,84,136,1,stimuli/objects/wheat.jpg,right,new,137,,,,,,,,
,,,,,,,,6,2020-12-22_10h32.33.088,premce3DEU_ses-02_part-02_label-phase2,2020.1.2,Win32,60,right,0.746805,3,0.306295,0,85,85,23,1,stimuli/objects/lollipop04.jpg,right,new,24,,,,,,,,
,,,,,,,,6,2020-12-22_10h32.33.088,premce3DEU_ses-02_part-02_label-phase2,2020.1.2,Win32,60,right,0.990465,3,1.29938,0,86,86,159,1,stimuli/objects/stairs.jpg,right,new,160,,,,,,,,
,,,,,,,,6,2020-12-22_10h32.33.088,premce3DEU_ses-02_part-02_label-phase2,2020.1.2,Win32,60,right,1.01701,2,1.121165,0,87,87,8,1,stimuli/objects/englishcucumber.jpg,right,new,9,,,,,,,,
,,,,,,,,6,2020-12-22_10h32.33.088,premce3DEU_ses-02_part-02_label-phase2,2020.1.2,Win32,60,right,0.568975,2,0.357625,0,88,88,79,1,stimuli/objects/callbell.jpg,left,old,80,,,,,,,,
,,,,,,,,6,2020-12-22_10h32.33.088,premce3DEU_ses-02_part-02_label-phase2,2020.1.2,Win32,60,right,0.561215,3,5.741565,0,89,89,114,1,stimuli/objects/star.jpg,left,old,115,,,,,,,,
,,,,,,,,6,2020-12-22_10h32.33.088,premce3DEU_ses-02_part-02_label-phase2,2020.1.2,Win32,60,left,3.70013,1,0.291715,0,90,90,95,1,stimuli/objects/scalpel.jpg,left,old,96,,,,,,,,
,,,,,,,,6,2020-12-22_10h32.33.088,premce3DEU_ses-02_part-02_label-phase2,2020.1.2,Win32,60,right,1.925775,2,0.6316,0,91,91,64,1,stimuli/objects/dalmatian.jpg,left,old,65,,,,,,,,
,,,,,,,,6,2020-12-22_10h32.33.088,premce3DEU_ses-02_part-02_label-phase2,2020.1.2,Win32,60,right,0.98268,2,1.724735,0,92,92,90,1,stimuli/objects/trailer.jpg,right,new,91,,,,,,,,
,,,,,,,,6,2020-12-22_10h32.33.088,premce3DEU_ses-02_part-02_label-phase2,2020.1.2,Win32,60,right,0.686505,3,0.31038,0,93,93,154,1,stimuli/objects/curtain.jpg,right,new,155,,,,,,,,
,,,,,,,,6,2020-12-22_10h32.33.088,premce3DEU_ses-02_part-02_label-phase2,2020.1.2,Win32,60,right,1.7505,4,0.374685,0,94,94,108,1,stimuli/objects/communitymailbox.jpg,left,old,109,,,,,,,,
,,,,,,,,6,2020-12-22_10h32.33.088,premce3DEU_ses-02_part-02_label-phase2,2020.1.2,Win32,60,right,1.371155,3,0.77048,0,95,95,65,1,stimuli/objects/weddingcake.jpg,left,old,66,,,,,,,,
,,,,,,,,6,2020-12-22_10h32.33.088,premce3DEU_ses-02_part-02_label-phase2,2020.1.2,Win32,60,right,1.112405,2,0.269355,0,96,96,4,1,stimuli/objects/skipole.jpg,right,new,5,,,,,,,,
,,,,,,,,6,2020-12-22_10h32.33.088,premce3DEU_ses-02_part-02_label-phase2,2020.1.2,Win32,60,right,0.696795,2,0.68055,0,97,97,141,1,stimuli/objects/stroller.jpg,right,new,142,,,,,,,,
,,,,,,,,6,2020-12-22_10h32.33.088,premce3DEU_ses-02_part-02_label-phase2,2020.1.2,Win32,60,right,1.963875,3,2.067145,0,98,98,58,1,stimuli/objects/beaver.jpg,left,old,59,,,,,,,,
,,,,,,,,6,2020-12-22_10h32.33.088,premce3DEU_ses-02_part-02_label-phase2,2020.1.2,Win32,60,right,0.64717,3,0.405775,0,99,99,96,1,stimuli/objects/awning.jpg,right,new,97,,,,,,,,
,,,,,,,,6,2020-12-22_10h32.33.088,premce3DEU_ses-02_part-02_label-phase2,2020.1.2,Win32,60,right,0.865575,3,0.57508,0,100,100,110,1,stimuli/objects/foosballtable.jpg,right,new,111,,,,,,,,
,,,,,,,,6,2020-12-22_10h32.33.088,premce3DEU_ses-02_part-02_label-phase2,2020.1.2,Win32,60,right,0.84997,3,0.37675,0,101,101,107,1,stimuli/objects/musicstand.jpg,left,old,108,,,,,,,,
,,,,,,,,6,2020-12-22_10h32.33.088,premce3DEU_ses-02_part-02_label-phase2,2020.1.2,Win32,60,right,0.662185,2,0.44196,0,102,102,26,1,stimuli/objects/sledgehammer.jpg,right,new,27,,,,,,,,
,,,,,,,,6,2020-12-22_10h32.33.088,premce3DEU_ses-02_part-02_label-phase2,2020.1.2,Win32,60,right,0.936895,3,0.420225,0,103,103,24,1,stimuli/objects/icecube02.jpg,right,new,25,,,,,,,,
,,,,,,,,6,2020-12-22_10h32.33.088,premce3DEU_ses-02_part-02_label-phase2,2020.1.2,Win32,60,right,1.496745,3,0.416325,0,104,104,72,1,stimuli/objects/totempole.jpg,right,new,73,,,,,,,,
,,,,,,,,6,2020-12-22_10h32.33.088,premce3DEU_ses-02_part-02_label-phase2,2020.1.2,Win32,60,right,0.69713,2,0.357935,0,105,105,125,1,stimuli/objects/freezer02.jpg,right,new,126,,,,,,,,
,,,,,,,,6,2020-12-22_10h32.33.088,premce3DEU_ses-02_part-02_label-phase2,2020.1.2,Win32,60,right,0.730225,2,0.31742,0,106,106,123,1,stimuli/objects/lintroller.jpg,left,old,124,,,,,,,,
,,,,,,,,6,2020-12-22_10h32.33.088,premce3DEU_ses-02_part-02_label-phase2,2020.1.2,Win32,60,right,1.46666,3,0.34545,0,107,107,111,1,stimuli/objects/platypus.jpg,right,new,112,,,,,,,,
,,,,,,,,6,2020-12-22_10h32.33.088,premce3DEU_ses-02_part-02_label-phase2,2020.1.2,Win32,60,right,1.075775,3,0.491735,0,108,108,80,1,stimuli/objects/tree.jpg,right,new,81,,,,,,,,
,,,,,,,,6,2020-12-22_10h32.33.088,premce3DEU_ses-02_part-02_label-phase2,2020.1.2,Win32,60,right,0.56448,2,1.12118,0,109,109,115,1,stimuli/objects/lantern03.jpg,left,old,116,,,,,,,,
,,,,,,,,6,2020-12-22_10h32.33.088,premce3DEU_ses-02_part-02_label-phase2,2020.1.2,Win32,60,right,2.50888,2,1.63631,0,110,110,52,1,stimuli/objects/turkey.jpg,right,new,53,,,,,,,,
,,,,,,,,6,2020-12-22_10h32.33.088,premce3DEU_ses-02_part-02_label-phase2,2020.1.2,Win32,60,right,0.66538,3,0.327375,0,111,111,94,1,stimuli/objects/dandelion.jpg,right,new,95,,,,,,,,
,,,,,,,,6,2020-12-22_10h32.33.088,premce3DEU_ses-02_part-02_label-phase2,2020.1.2,Win32,60,right,0.640245,2,1.777345,0,112,112,112,1,stimuli/objects/tank.jpg,right,new,113,,,,,,,,
,,,,,,,,6,2020-12-22_10h32.33.088,premce3DEU_ses-02_part-02_label-phase2,2020.1.2,Win32,60,right,0.932705,3,1.2584,0,113,113,53,1,stimuli/objects/honeybee.jpg,right,new,54,,,,,,,,
,,,,,,,,6,2020-12-22_10h32.33.088,premce3DEU_ses-02_part-02_label-phase2,2020.1.2,Win32,60,right,0.58828,2,0.41605,0,114,114,11,1,stimuli/objects/cannon.jpg,left,old,12,,,,,,,,
,,,,,,,,6,2020-12-22_10h32.33.088,premce3DEU_ses-02_part-02_label-phase2,2020.1.2,Win32,60,right,1.46464,3,0.535585,0,115,115,89,1,stimuli/objects/bowlingball.jpg,right,new,90,,,,,,,,
,,,,,,,,6,2020-12-22_10h32.33.088,premce3DEU_ses-02_part-02_label-phase2,2020.1.2,Win32,60,right,0.770985,1,1.461145,0,116,116,157,1,stimuli/objects/cookingpot.jpg,left,old,158,,,,,,,,
,,,,,,,,6,2020-12-22_10h32.33.088,premce3DEU_ses-02_part-02_label-phase2,2020.1.2,Win32,60,right,5.420855,1,0.725265,0,117,117,84,1,stimuli/objects/winniethepooh.jpg,left,old,85,,,,,,,,
,,,,,,,,6,2020-12-22_10h32.33.088,premce3DEU_ses-02_part-02_label-phase2,2020.1.2,Win32,60,right,2.12005,3,0.790955,0,118,118,147,1,stimuli/objects/toiletbrush.jpg,right,new,148,,,,,,,,
,,,,,,,,6,2020-12-22_10h32.33.088,premce3DEU_ses-02_part-02_label-phase2,2020.1.2,Win32,60,right,0.64173,3,0.273035,0,119,119,22,1,stimuli/objects/paperairplane.jpg,right,new,23,,,,,,,,
,,,,,,,,6,2020-12-22_10h32.33.088,premce3DEU_ses-02_part-02_label-phase2,2020.1.2,Win32,60,right,0.699865,2,0.670435,0,120,120,55,1,stimuli/objects/drumstick.jpg,right,new,56,,,,,,,,
,,,,,,,,6,2020-12-22_10h32.33.088,premce3DEU_ses-02_part-02_label-phase2,2020.1.2,Win32,60,right,0.637555,2,0.43267,0,121,121,44,1,stimuli/objects/artichoke01b.jpg,left,old,45,,,,,,,,
,,,,,,,,6,2020-12-22_10h32.33.088,premce3DEU_ses-02_part-02_label-phase2,2020.1.2,Win32,60,right,1.121895,3,1.20677,0,122,122,38,1,stimuli/objects/pig.jpg,right,new,39,,,,,,,,
,,,,,,,,6,2020-12-22_10h32.33.088,premce3DEU_ses-02_part-02_label-phase2,2020.1.2,Win32,60,right,0.804425,3,0.50607,0,123,123,104,1,stimuli/objects/porcupine.jpg,left,old,105,,,,,,,,
,,,,,,,,6,2020-12-22_10h32.33.088,premce3DEU_ses-02_part-02_label-phase2,2020.1.2,Win32,60,right,0.63226,1,8.14352,0,124,124,132,1,stimuli/objects/shower.jpg,left,old,133,,,,,,,,
,,,,,,,,6,2020-12-22_10h32.33.088,premce3DEU_ses-02_part-02_label-phase2,2020.1.2,Win32,60,right,4.80149,2,3.955255,0,125,125,21,1,stimuli/objects/tire.jpg,right,new,22,,,,,,,,
,,,,,,,,6,2020-12-22_10h32.33.088,premce3DEU_ses-02_part-02_label-phase2,2020.1.2,Win32,60,right,1.65779,2,0.76034,0,126,126,31,1,stimuli/objects/file.jpg,left,old,32,,,,,,,,
,,,,,,,,6,2020-12-22_10h32.33.088,premce3DEU_ses-02_part-02_label-phase2,2020.1.2,Win32,60,right,1.139365,2,0.32874,0,127,127,19,1,stimuli/objects/crosscountryski.jpg,right,new,20,,,,,,,,
,,,,,,,,6,2020-12-22_10h32.33.088,premce3DEU_ses-02_part-02_label-phase2,2020.1.2,Win32,60,right,0.645145,2,1.088475,0,128,128,33,1,stimuli/objects/caribou02.jpg,right,new,34,,,,,,,,
,,,,,,,,6,2020-12-22_10h32.33.088,premce3DEU_ses-02_part-02_label-phase2,2020.1.2,Win32,60,right,0.68469,3,0.671775,0,129,129,57,1,stimuli/objects/cupcake.jpg,right,new,58,,,,,,,,
,,,,,,,,6,2020-12-22_10h32.33.088,premce3DEU_ses-02_part-02_label-phase2,2020.1.2,Win32,60,right,0.72404,3,0.32494,0,130,130,54,1,stimuli/objects/toynutcracker.jpg,right,new,55,,,,,,,,
,,,,,,,,6,2020-12-22_10h32.33.088,premce3DEU_ses-02_part-02_label-phase2,2020.1.2,Win32,60,left,3.04342,1,0.422525,0,131,131,144,1,stimuli/objects/trombone.jpg,left,old,145,,,,,,,,
,,,,,,,,6,2020-12-22_10h32.33.088,premce3DEU_ses-02_part-02_label-phase2,2020.1.2,Win32,60,right,1.10097,2,0.40004,0,132,132,1,1,stimuli/objects/pooltable.jpg,right,new,2,,,,,,,,
,,,,,,,,6,2020-12-22_10h32.33.088,premce3DEU_ses-02_part-02_label-phase2,2020.1.2,Win32,60,right,1.95687,1,0.902685,0,133,133,81,1,stimuli/objects/lighthouse.jpg,right,new,82,,,,,,,,
,,,,,,,,6,2020-12-22_10h32.33.088,premce3DEU_ses-02_part-02_label-phase2,2020.1.2,Win32,60,right,9.056205,2,0.6981,0,134,134,146,1,stimuli/objects/ant.jpg,right,new,147,,,,,,,,
,,,,,,,,6,2020-12-22_10h32.33.088,premce3DEU_ses-02_part-02_label-phase2,2020.1.2,Win32,60,right,0.988005,3,0.301885,0,135,135,131,1,stimuli/objects/missile.jpg,right,new,132,,,,,,,,
,,,,,,,,6,2020-12-22_10h32.33.088,premce3DEU_ses-02_part-02_label-phase2,2020.1.2,Win32,60,right,0.71091,3,0.67933,0,136,136,36,1,stimuli/objects/christmaslights.jpg,left,old,37,,,,,,,,
,,,,,,,,6,2020-12-22_10h32.33.088,premce3DEU_ses-02_part-02_label-phase2,2020.1.2,Win32,60,right,0.94689,3,0.439115,0,137,137,121,1,stimuli/objects/riverotter.jpg,right,new,122,,,,,,,,
,,,,,,,,6,2020-12-22_10h32.33.088,premce3DEU_ses-02_part-02_label-phase2,2020.1.2,Win32,60,right,0.817915,2,0.328865,0,138,138,124,1,stimuli/objects/handheldtelescope.jpg,left,old,125,,,,,,,,
,,,,,,,,6,2020-12-22_10h32.33.088,premce3DEU_ses-02_part-02_label-phase2,2020.1.2,Win32,60,right,1.63928,2,0.375575,0,139,139,60,1,stimuli/objects/banjo.jpg,right,new,61,,,,,,,,
,,,,,,,,6,2020-12-22_10h32.33.088,premce3DEU_ses-02_part-02_label-phase2,2020.1.2,Win32,60,right,0.604345,2,0.469055,0,140,140,106,1,stimuli/objects/helicopter.jpg,right,new,107,,,,,,,,
,,,,,,,,6,2020-12-22_10h32.33.088,premce3DEU_ses-02_part-02_label-phase2,2020.1.2,Win32,60,right,0.727035,2,0.382915,0,141,141,67,1,stimuli/objects/volleyball.jpg,left,old,68,,,,,,,,
,,,,,,,,6,2020-12-22_10h32.33.088,premce3DEU_ses-02_part-02_label-phase2,2020.1.2,Win32,60,right,3.85026,3,1.025485,0,142,142,51,1,stimuli/objects/road02.jpg,right,new,52,,,,,,,,
,,,,,,,,6,2020-12-22_10h32.33.088,premce3DEU_ses-02_part-02_label-phase2,2020.1.2,Win32,60,right,0.74342,3,3.22131,0,143,143,42,1,stimuli/objects/snowshoe.jpg,right,new,43,,,,,,,,
,,,,,,,,6,2020-12-22_10h32.33.088,premce3DEU_ses-02_part-02_label-phase2,2020.1.2,Win32,60,right,0.66632,2,0.325475,0,144,144,63,1,stimuli/objects/toasteroven.jpg,right,new,64,,,,,,,,
,,,,,,,,6,2020-12-22_10h32.33.088,premce3DEU_ses-02_part-02_label-phase2,2020.1.2,Win32,60,right,0.963145,2,0.48289,0,145,145,149,1,stimuli/objects/dolly01.jpg,right,new,150,,,,,,,,
,,,,,,,,6,2020-12-22_10h32.33.088,premce3DEU_ses-02_part-02_label-phase2,2020.1.2,Win32,60,right,0.69953,2,1.649535,0,146,146,75,1,stimuli/objects/barn.jpg,left,old,76,,,,,,,,
,,,,,,,,6,2020-12-22_10h32.33.088,premce3DEU_ses-02_part-02_label-phase2,2020.1.2,Win32,60,right,2.079105,2,0.466185,0,147,147,142,1,stimuli/objects/giraffe.jpg,left,old,143,,,,,,,,
,,,,,,,,6,2020-12-22_10h32.33.088,premce3DEU_ses-02_part-02_label-phase2,2020.1.2,Win32,60,right,2.044005,3,0.71464,0,148,148,105,1,stimuli/objects/gps.jpg,left,old,106,,,,,,,,
,,,,,,,,6,2020-12-22_10h32.33.088,premce3DEU_ses-02_part-02_label-phase2,2020.1.2,Win32,60,left,1.659715,3,1.10446,0,149,149,29,1,stimuli/objects/snowman.jpg,left,old,30,,,,,,,,
,,,,,,,,6,2020-12-22_10h32.33.088,premce3DEU_ses-02_part-02_label-phase2,2020.1.2,Win32,60,left,3.35328,3,1.573145,0,150,150,78,1,stimuli/objects/monarchbutterfly.jpg,left,old,79,,,,,,,,
,,,,,,,,6,2020-12-22_10h32.33.088,premce3DEU_ses-02_part-02_label-phase2,2020.1.2,Win32,60,right,1.368035,1,1.167845,0,151,151,87,1,stimuli/objects/filingcabinet.jpg,left,old,88,,,,,,,,
,,,,,,,,6,2020-12-22_10h32.33.088,premce3DEU_ses-02_part-02_label-phase2,2020.1.2,Win32,60,right,0.959685,1,1.080495,0,152,152,27,1,stimuli/objects/coffeemaker.jpg,left,old,28,,,,,,,,
,,,,,,,,6,2020-12-22_10h32.33.088,premce3DEU_ses-02_part-02_label-phase2,2020.1.2,Win32,60,right,1.98112,2,0.452145,0,153,153,99,1,stimuli/objects/waterfountain02.jpg,left,old,100,,,,,,,,
,,,,,,,,6,2020-12-22_10h32.33.088,premce3DEU_ses-02_part-02_label-phase2,2020.1.2,Win32,60,left,2.634665,4,2.280285,0,154,154,151,1,stimuli/objects/contactlens.jpg,left,old,152,,,,,,,,
,,,,,,,,6,2020-12-22_10h32.33.088,premce3DEU_ses-02_part-02_label-phase2,2020.1.2,Win32,60,right,2.97633,3,1.051235,0,155,155,100,1,stimuli/objects/macaroni01.jpg,right,new,101,,,,,,,,
,,,,,,,,6,2020-12-22_10h32.33.088,premce3DEU_ses-02_part-02_label-phase2,2020.1.2,Win32,60,right,1.03137,2,0.65833,0,156,156,91,1,stimuli/objects/eyepatch.jpg,left,old,92,,,,,,,,
,,,,,,,,6,2020-12-22_10h32.33.088,premce3DEU_ses-02_part-02_label-phase2,2020.1.2,Win32,60,left,2.34381,2,4.752625,0,157,157,40,1,stimuli/objects/cremebrulee.jpg,left,old,41,,,,,,,,
,,,,,,,,6,2020-12-22_10h32.33.088,premce3DEU_ses-02_part-02_label-phase2,2020.1.2,Win32,60,right,0.935805,3,0.94115,0,158,158,143,1,stimuli/objects/faucet.jpg,right,new,144,,,,,,,,
,,,,,,,,6,2020-12-22_10h32.33.088,premce3DEU_ses-02_part-02_label-phase2,2020.1.2,Win32,60,right,0.97637,2,0.41411,0,159,159,76,1,stimuli/objects/morningstar.jpg,right,new,77,,,,,,,,
,,,,,,,,6,2020-12-22_10h32.33.088,premce3DEU_ses-02_part-02_label-phase2,2020.1.2,Win32,60,,,,,,,,,,,,,,space,4.18556,0,1,1,0,1,ImagesforRecog1.csv
