instructions_loop.thisRepN,instructions_loop.thisTrialN,instructions_loop.thisN,instructions_loop.thisIndex,instructions_loop.ran,text1,text2,text3,participant,date,expName,psychopyVersion,OS,frameRate,recog_resp.keys,recog_resp.rt,conf_resp.keys,conf_resp.rt,recog_loop.thisRepN,recog_loop.thisTrialN,recog_loop.thisN,recog_loop.thisIndex,recog_loop.ran,images,corr_ans,type,order,key_resp_break.keys,key_resp_break.rt,list_loop.thisRepN,list_loop.thisTrialN,list_loop.thisN,list_loop.thisIndex,list_loop.ran,recog_list
0,0,0,0,1,Willkommen zum letzten Teil des Experiments!,,Mit der LEERTASTE kannst du mit der Aufgabe fortfahren.,8,2021-01-15_16h40.38.081,premce3DEU_ses-02_part-02_label-phase2,2020.1.2,MacIntel,60,,,,,,,,,,,,,,,,,,,,,
0,1,1,1,1,,"Jetzt werden wir dir einige Bilder zeigen.

Bitte gib zu jedem Bild an, ob du du es im Verlauf des Experiments gesehen hast.

Drücke die LINKE PFEILTASTE für JA
Drücke die RECHTE PFEILTASTE für NEIN

",Mit der LEERTASTE kannst du mit der Aufgabe fortfahren.,8,2021-01-15_16h40.38.081,premce3DEU_ses-02_part-02_label-phase2,2020.1.2,MacIntel,60,,,,,,,,,,,,,,,,,,,,,
0,2,2,2,1,,"Anschließend bitten wir dich anzugeben wie sicher du dir bei deiner Wahl bist.

Bitte nutze die Zifferntasten von 1 bis 4 am oberen Ende deiner Tastatur um anzugeben, wie sicher du dir bei deiner Antwort bist.

Die Zahlen stehen für

1 = Sehr unsicher
2 = Unsicher
3 = Sicher
4 = Sehr sicher",Mit der LEERTASTE kannst du mit der Aufgabe fortfahren.,8,2021-01-15_16h40.38.081,premce3DEU_ses-02_part-02_label-phase2,2020.1.2,MacIntel,60,,,,,,,,,,,,,,,,,,,,,
,,,,,,,,8,2021-01-15_16h40.38.081,premce3DEU_ses-02_part-02_label-phase2,2020.1.2,MacIntel,60,left,3.76,4,5.166,0,0,0,111,1,stimuli/objects/jellybean.jpg,left,old,272,,,,,,,,
,,,,,,,,8,2021-01-15_16h40.38.081,premce3DEU_ses-02_part-02_label-phase2,2020.1.2,MacIntel,60,right,2.192,2,2.056,0,1,1,109,1,stimuli/objects/spiderweb.jpg,right,new,270,,,,,,,,
,,,,,,,,8,2021-01-15_16h40.38.081,premce3DEU_ses-02_part-02_label-phase2,2020.1.2,MacIntel,60,right,3.018,2,2.021,0,2,2,107,1,stimuli/objects/tambourine03.jpg,right,new,268,,,,,,,,
,,,,,,,,8,2021-01-15_16h40.38.081,premce3DEU_ses-02_part-02_label-phase2,2020.1.2,MacIntel,60,left,1.893,4,1.74,0,3,3,10,1,stimuli/objects/spicerack.jpg,left,old,171,,,,,,,,
,,,,,,,,8,2021-01-15_16h40.38.081,premce3DEU_ses-02_part-02_label-phase2,2020.1.2,MacIntel,60,right,1.118,2,2.691,0,4,4,115,1,stimuli/objects/witchhat.jpg,left,old,276,,,,,,,,
,,,,,,,,8,2021-01-15_16h40.38.081,premce3DEU_ses-02_part-02_label-phase2,2020.1.2,MacIntel,60,left,1.646,3,2.967,0,5,5,30,1,stimuli/objects/key07.jpg,left,old,191,,,,,,,,
,,,,,,,,8,2021-01-15_16h40.38.081,premce3DEU_ses-02_part-02_label-phase2,2020.1.2,MacIntel,60,left,1.477,4,1.034,0,6,6,87,1,stimuli/objects/chipmunk.jpg,left,old,248,,,,,,,,
,,,,,,,,8,2021-01-15_16h40.38.081,premce3DEU_ses-02_part-02_label-phase2,2020.1.2,MacIntel,60,right,1.414,2,1.275,0,7,7,16,1,stimuli/objects/dartboard.jpg,left,old,177,,,,,,,,
,,,,,,,,8,2021-01-15_16h40.38.081,premce3DEU_ses-02_part-02_label-phase2,2020.1.2,MacIntel,60,right,1.388,2,1.924,0,8,8,46,1,stimuli/objects/kneepad01c.jpg,right,new,207,,,,,,,,
,,,,,,,,8,2021-01-15_16h40.38.081,premce3DEU_ses-02_part-02_label-phase2,2020.1.2,MacIntel,60,right,1.127,2,1.329,0,9,9,113,1,stimuli/objects/bluejay.jpg,right,new,274,,,,,,,,
,,,,,,,,8,2021-01-15_16h40.38.081,premce3DEU_ses-02_part-02_label-phase2,2020.1.2,MacIntel,60,right,1.42,2,0.639,0,10,10,110,1,stimuli/objects/funnel.jpg,right,new,271,,,,,,,,
,,,,,,,,8,2021-01-15_16h40.38.081,premce3DEU_ses-02_part-02_label-phase2,2020.1.2,MacIntel,60,left,1.343,2,1.233,0,11,11,25,1,stimuli/objects/scooter.jpg,right,new,186,,,,,,,,
,,,,,,,,8,2021-01-15_16h40.38.081,premce3DEU_ses-02_part-02_label-phase2,2020.1.2,MacIntel,60,right,1.599,2,1.163,0,12,12,23,1,stimuli/objects/graduationcap.jpg,right,new,184,,,,,,,,
,,,,,,,,8,2021-01-15_16h40.38.081,premce3DEU_ses-02_part-02_label-phase2,2020.1.2,MacIntel,60,right,0.978,2,0.88,0,13,13,80,1,stimuli/objects/floorlamp.jpg,right,new,241,,,,,,,,
,,,,,,,,8,2021-01-15_16h40.38.081,premce3DEU_ses-02_part-02_label-phase2,2020.1.2,MacIntel,60,right,0.934,2,1.49,0,14,14,131,1,stimuli/objects/boxingglove01.jpg,right,new,292,,,,,,,,
,,,,,,,,8,2021-01-15_16h40.38.081,premce3DEU_ses-02_part-02_label-phase2,2020.1.2,MacIntel,60,right,0.874,1,0.777,0,15,15,145,1,stimuli/objects/rooster.jpg,right,new,306,,,,,,,,
,,,,,,,,8,2021-01-15_16h40.38.081,premce3DEU_ses-02_part-02_label-phase2,2020.1.2,MacIntel,60,left,1.194,4,1.409,0,16,16,90,1,stimuli/objects/battleaxe.jpg,left,old,251,,,,,,,,
,,,,,,,,8,2021-01-15_16h40.38.081,premce3DEU_ses-02_part-02_label-phase2,2020.1.2,MacIntel,60,right,1.441,1,0.879,0,17,17,129,1,stimuli/objects/escalator.jpg,left,old,290,,,,,,,,
,,,,,,,,8,2021-01-15_16h40.38.081,premce3DEU_ses-02_part-02_label-phase2,2020.1.2,MacIntel,60,right,1.122,1,0.311,0,18,18,51,1,stimuli/objects/kangaroo01.jpg,right,new,212,,,,,,,,
,,,,,,,,8,2021-01-15_16h40.38.081,premce3DEU_ses-02_part-02_label-phase2,2020.1.2,MacIntel,60,right,1.007,1,0.35,0,19,19,138,1,stimuli/objects/ladybug03.jpg,right,new,299,,,,,,,,
,,,,,,,,8,2021-01-15_16h40.38.081,premce3DEU_ses-02_part-02_label-phase2,2020.1.2,MacIntel,60,left,0.932,4,0.397,0,20,20,44,1,stimuli/objects/donut.jpg,left,old,205,,,,,,,,
,,,,,,,,8,2021-01-15_16h40.38.081,premce3DEU_ses-02_part-02_label-phase2,2020.1.2,MacIntel,60,right,0.878,1,0.606,0,21,21,98,1,stimuli/objects/cashregister01.jpg,left,old,259,,,,,,,,
,,,,,,,,8,2021-01-15_16h40.38.081,premce3DEU_ses-02_part-02_label-phase2,2020.1.2,MacIntel,60,right,0.775,1,0.409,0,22,22,7,1,stimuli/objects/bolt01a.jpg,left,old,168,,,,,,,,
,,,,,,,,8,2021-01-15_16h40.38.081,premce3DEU_ses-02_part-02_label-phase2,2020.1.2,MacIntel,60,right,1.662,1,0.564,0,23,23,149,1,stimuli/objects/mortarandpestle.jpg,right,new,310,,,,,,,,
,,,,,,,,8,2021-01-15_16h40.38.081,premce3DEU_ses-02_part-02_label-phase2,2020.1.2,MacIntel,60,right,0.798,1,0.774,0,24,24,29,1,stimuli/objects/steeringwheel.jpg,right,new,190,,,,,,,,
,,,,,,,,8,2021-01-15_16h40.38.081,premce3DEU_ses-02_part-02_label-phase2,2020.1.2,MacIntel,60,left,1.18,4,0.364,0,25,25,56,1,stimuli/objects/toyanimal05.jpg,left,old,217,,,,,,,,
,,,,,,,,8,2021-01-15_16h40.38.081,premce3DEU_ses-02_part-02_label-phase2,2020.1.2,MacIntel,60,right,0.945,2,0.364,0,26,26,95,1,stimuli/objects/sealion.jpg,right,new,256,,,,,,,,
,,,,,,,,8,2021-01-15_16h40.38.081,premce3DEU_ses-02_part-02_label-phase2,2020.1.2,MacIntel,60,right,2.2,2,0.661,0,27,27,77,1,stimuli/objects/electricguitar01.jpg,left,old,238,,,,,,,,
,,,,,,,,8,2021-01-15_16h40.38.081,premce3DEU_ses-02_part-02_label-phase2,2020.1.2,MacIntel,60,right,0.968,2,1.462,0,28,28,133,1,stimuli/objects/kiwi03.jpg,right,new,294,,,,,,,,
,,,,,,,,8,2021-01-15_16h40.38.081,premce3DEU_ses-02_part-02_label-phase2,2020.1.2,MacIntel,60,right,0.806,2,1.304,0,29,29,66,1,stimuli/objects/tricornhat.jpg,right,new,227,,,,,,,,
,,,,,,,,8,2021-01-15_16h40.38.081,premce3DEU_ses-02_part-02_label-phase2,2020.1.2,MacIntel,60,left,1.127,4,0.356,0,30,30,147,1,stimuli/objects/bleachers.jpg,left,old,308,,,,,,,,
,,,,,,,,8,2021-01-15_16h40.38.081,premce3DEU_ses-02_part-02_label-phase2,2020.1.2,MacIntel,60,left,3.211,2,1.142,0,31,31,54,1,stimuli/objects/acousticguitar02.jpg,right,new,215,,,,,,,,
,,,,,,,,8,2021-01-15_16h40.38.081,premce3DEU_ses-02_part-02_label-phase2,2020.1.2,MacIntel,60,right,1.093,1,0.995,0,32,32,20,1,stimuli/objects/toysoldier01b.jpg,right,new,181,,,,,,,,
,,,,,,,,8,2021-01-15_16h40.38.081,premce3DEU_ses-02_part-02_label-phase2,2020.1.2,MacIntel,60,right,0.876,1,1.127,0,33,33,15,1,stimuli/objects/stool01.jpg,left,old,176,,,,,,,,
,,,,,,,,8,2021-01-15_16h40.38.081,premce3DEU_ses-02_part-02_label-phase2,2020.1.2,MacIntel,60,right,1.228,1,0.294,0,34,34,88,1,stimuli/objects/toilet.jpg,right,new,249,,,,,,,,
,,,,,,,,8,2021-01-15_16h40.38.081,premce3DEU_ses-02_part-02_label-phase2,2020.1.2,MacIntel,60,right,1.057,2,0.226,0,35,35,52,1,stimuli/objects/acorn.jpg,left,old,213,,,,,,,,
,,,,,,,,8,2021-01-15_16h40.38.081,premce3DEU_ses-02_part-02_label-phase2,2020.1.2,MacIntel,60,left,1.425,3,0.526,0,36,36,91,1,stimuli/objects/shed02.jpg,right,new,252,,,,,,,,
,,,,,,,,8,2021-01-15_16h40.38.081,premce3DEU_ses-02_part-02_label-phase2,2020.1.2,MacIntel,60,right,1.313,2,0.366,0,37,37,53,1,stimuli/objects/parachute.jpg,right,new,214,,,,,,,,
,,,,,,,,8,2021-01-15_16h40.38.081,premce3DEU_ses-02_part-02_label-phase2,2020.1.2,MacIntel,60,right,1.658,2,0.366,0,38,38,73,1,stimuli/objects/barrel01.jpg,left,old,234,,,,,,,,
,,,,,,,,8,2021-01-15_16h40.38.081,premce3DEU_ses-02_part-02_label-phase2,2020.1.2,MacIntel,60,right,0.847,2,0.375,0,39,39,81,1,stimuli/objects/raccoon.jpg,right,new,242,,,,,,,,
,,,,,,,,8,2021-01-15_16h40.38.081,premce3DEU_ses-02_part-02_label-phase2,2020.1.2,MacIntel,60,left,1.472,4,0.332,0,40,40,72,1,stimuli/objects/doghouse.jpg,left,old,233,,,,,,,,
,,,,,,,,8,2021-01-15_16h40.38.081,premce3DEU_ses-02_part-02_label-phase2,2020.1.2,MacIntel,60,right,1.021,2,0.847,0,41,41,74,1,stimuli/objects/turnstile.jpg,right,new,235,,,,,,,,
,,,,,,,,8,2021-01-15_16h40.38.081,premce3DEU_ses-02_part-02_label-phase2,2020.1.2,MacIntel,60,left,1.401,2,1.26,0,42,42,142,1,stimuli/objects/lightswitch01.jpg,left,old,303,,,,,,,,
,,,,,,,,8,2021-01-15_16h40.38.081,premce3DEU_ses-02_part-02_label-phase2,2020.1.2,MacIntel,60,left,0.995,4,0.47,0,43,43,47,1,stimuli/objects/candycane01a.jpg,left,old,208,,,,,,,,
,,,,,,,,8,2021-01-15_16h40.38.081,premce3DEU_ses-02_part-02_label-phase2,2020.1.2,MacIntel,60,right,0.928,2,0.324,0,44,44,43,1,stimuli/objects/poolcue.jpg,right,new,204,,,,,,,,
,,,,,,,,8,2021-01-15_16h40.38.081,premce3DEU_ses-02_part-02_label-phase2,2020.1.2,MacIntel,60,left,1.127,4,0.101,0,45,45,128,1,stimuli/objects/chime.jpg,left,old,289,,,,,,,,
,,,,,,,,8,2021-01-15_16h40.38.081,premce3DEU_ses-02_part-02_label-phase2,2020.1.2,MacIntel,60,left,1.088,4,0.367,0,46,46,151,1,stimuli/objects/jellyfish.jpg,left,old,312,,,,,,,,
,,,,,,,,8,2021-01-15_16h40.38.081,premce3DEU_ses-02_part-02_label-phase2,2020.1.2,MacIntel,60,left,2.128,3,1.646,0,47,47,102,1,stimuli/objects/baseballglove.jpg,left,old,263,,,,,,,,
,,,,,,,,8,2021-01-15_16h40.38.081,premce3DEU_ses-02_part-02_label-phase2,2020.1.2,MacIntel,60,right,0.718,2,1.388,0,48,48,39,1,stimuli/objects/desktopcomputer.jpg,left,old,200,,,,,,,,
,,,,,,,,8,2021-01-15_16h40.38.081,premce3DEU_ses-02_part-02_label-phase2,2020.1.2,MacIntel,60,left,1.018,3,1.445,0,49,49,13,1,stimuli/objects/sailboat.jpg,left,old,174,,,,,,,,
,,,,,,,,8,2021-01-15_16h40.38.081,premce3DEU_ses-02_part-02_label-phase2,2020.1.2,MacIntel,60,right,0.724,1,0.818,0,50,50,64,1,stimuli/objects/trojanhorse.jpg,right,new,225,,,,,,,,
,,,,,,,,8,2021-01-15_16h40.38.081,premce3DEU_ses-02_part-02_label-phase2,2020.1.2,MacIntel,60,right,1.27,2,0.466,0,51,51,60,1,stimuli/objects/hammerheadshark.jpg,right,new,221,,,,,,,,
,,,,,,,,8,2021-01-15_16h40.38.081,premce3DEU_ses-02_part-02_label-phase2,2020.1.2,MacIntel,60,right,0.803,2,0.322,0,52,52,104,1,stimuli/objects/rockingchair.jpg,left,old,265,,,,,,,,
,,,,,,,,8,2021-01-15_16h40.38.081,premce3DEU_ses-02_part-02_label-phase2,2020.1.2,MacIntel,60,left,0.876,4,0.233,0,53,53,75,1,stimuli/objects/bookshelf.jpg,left,old,236,,,,,,,,
,,,,,,,,8,2021-01-15_16h40.38.081,premce3DEU_ses-02_part-02_label-phase2,2020.1.2,MacIntel,60,left,1.259,4,0.331,0,54,54,112,1,stimuli/objects/hotdog.jpg,left,old,273,,,,,,,,
,,,,,,,,8,2021-01-15_16h40.38.081,premce3DEU_ses-02_part-02_label-phase2,2020.1.2,MacIntel,60,right,0.973,2,0.289,0,55,55,32,1,stimuli/objects/cross01.jpg,right,new,193,,,,,,,,
,,,,,,,,8,2021-01-15_16h40.38.081,premce3DEU_ses-02_part-02_label-phase2,2020.1.2,MacIntel,60,right,0.924,1,0.339,0,56,56,40,1,stimuli/objects/beehive.jpg,right,new,201,,,,,,,,
,,,,,,,,8,2021-01-15_16h40.38.081,premce3DEU_ses-02_part-02_label-phase2,2020.1.2,MacIntel,60,right,0.865,2,0.36,0,57,57,67,1,stimuli/objects/snowshovel.jpg,left,old,228,,,,,,,,
,,,,,,,,8,2021-01-15_16h40.38.081,premce3DEU_ses-02_part-02_label-phase2,2020.1.2,MacIntel,60,right,1.024,2,0.423,0,58,58,152,1,stimuli/objects/harmonica.jpg,right,new,313,,,,,,,,
,,,,,,,,8,2021-01-15_16h40.38.081,premce3DEU_ses-02_part-02_label-phase2,2020.1.2,MacIntel,60,right,0.874,2,0.15,0,59,59,62,1,stimuli/objects/painting.jpg,right,new,223,,,,,,,,
,,,,,,,,8,2021-01-15_16h40.38.081,premce3DEU_ses-02_part-02_label-phase2,2020.1.2,MacIntel,60,right,1.051,2,0.1,0,60,60,94,1,stimuli/objects/scorpion.jpg,right,new,255,,,,,,,,
,,,,,,,,8,2021-01-15_16h40.38.081,premce3DEU_ses-02_part-02_label-phase2,2020.1.2,MacIntel,60,right,0.819,2,0.079,0,61,61,136,1,stimuli/objects/mouse.jpg,right,new,297,,,,,,,,
,,,,,,,,8,2021-01-15_16h40.38.081,premce3DEU_ses-02_part-02_label-phase2,2020.1.2,MacIntel,60,left,1.176,4,0.006,0,62,62,114,1,stimuli/objects/cymbal.jpg,left,old,275,,,,,,,,
,,,,,,,,8,2021-01-15_16h40.38.081,premce3DEU_ses-02_part-02_label-phase2,2020.1.2,MacIntel,60,right,0.866,2,0.156,0,63,63,84,1,stimuli/objects/carbattery.jpg,right,new,245,,,,,,,,
,,,,,,,,8,2021-01-15_16h40.38.081,premce3DEU_ses-02_part-02_label-phase2,2020.1.2,MacIntel,60,right,0.609,2,0.039,0,64,64,76,1,stimuli/objects/statue.jpg,right,new,237,,,,,,,,
,,,,,,,,8,2021-01-15_16h40.38.081,premce3DEU_ses-02_part-02_label-phase2,2020.1.2,MacIntel,60,left,1.557,3,0.312,0,65,65,26,1,stimuli/objects/schoolbus.jpg,right,new,187,,,,,,,,
,,,,,,,,8,2021-01-15_16h40.38.081,premce3DEU_ses-02_part-02_label-phase2,2020.1.2,MacIntel,60,right,0.746,2,0.425,0,66,66,141,1,stimuli/objects/gong.jpg,left,old,302,,,,,,,,
,,,,,,,,8,2021-01-15_16h40.38.081,premce3DEU_ses-02_part-02_label-phase2,2020.1.2,MacIntel,60,left,1.164,4,0.249,0,67,67,108,1,stimuli/objects/cork02.jpg,left,old,269,,,,,,,,
,,,,,,,,8,2021-01-15_16h40.38.081,premce3DEU_ses-02_part-02_label-phase2,2020.1.2,MacIntel,60,right,0.999,2,0.315,0,68,68,157,1,stimuli/objects/eagle.jpg,right,new,318,,,,,,,,
,,,,,,,,8,2021-01-15_16h40.38.081,premce3DEU_ses-02_part-02_label-phase2,2020.1.2,MacIntel,60,right,0.847,2,0.341,0,69,69,12,1,stimuli/objects/musicsheet.jpg,right,new,173,,,,,,,,
,,,,,,,,8,2021-01-15_16h40.38.081,premce3DEU_ses-02_part-02_label-phase2,2020.1.2,MacIntel,60,left,0.924,4,0.611,0,70,70,8,1,stimuli/objects/cloud.jpg,left,old,169,,,,,,,,
,,,,,,,,8,2021-01-15_16h40.38.081,premce3DEU_ses-02_part-02_label-phase2,2020.1.2,MacIntel,60,right,0.915,2,0.554,0,71,71,93,1,stimuli/objects/slushiemachine.jpg,right,new,254,,,,,,,,
,,,,,,,,8,2021-01-15_16h40.38.081,premce3DEU_ses-02_part-02_label-phase2,2020.1.2,MacIntel,60,right,0.866,2,0.047,0,72,72,58,1,stimuli/objects/tricycle.jpg,left,old,219,,,,,,,,
,,,,,,,,8,2021-01-15_16h40.38.081,premce3DEU_ses-02_part-02_label-phase2,2020.1.2,MacIntel,60,right,0.806,2,0.571,0,73,73,1,1,stimuli/objects/tent.jpg,left,old,162,,,,,,,,
,,,,,,,,8,2021-01-15_16h40.38.081,premce3DEU_ses-02_part-02_label-phase2,2020.1.2,MacIntel,60,left,1.322,3,0.276,0,74,74,123,1,stimuli/objects/ironingboard01.jpg,left,old,284,,,,,,,,
,,,,,,,,8,2021-01-15_16h40.38.081,premce3DEU_ses-02_part-02_label-phase2,2020.1.2,MacIntel,60,left,1.133,4,0.294,0,75,75,42,1,stimuli/objects/asianelephant.jpg,left,old,203,,,,,,,,
,,,,,,,,8,2021-01-15_16h40.38.081,premce3DEU_ses-02_part-02_label-phase2,2020.1.2,MacIntel,60,right,0.82,2,1.226,0,76,76,28,1,stimuli/objects/car.jpg,left,old,189,,,,,,,,
,,,,,,,,8,2021-01-15_16h40.38.081,premce3DEU_ses-02_part-02_label-phase2,2020.1.2,MacIntel,60,right,0.914,2,0.013,0,77,77,134,1,stimuli/objects/bikelock.jpg,right,new,295,,,,,,,,
,,,,,,,,8,2021-01-15_16h40.38.081,premce3DEU_ses-02_part-02_label-phase2,2020.1.2,MacIntel,60,left,0.912,4,0.203,0,78,78,117,1,stimuli/objects/fingerprint.jpg,left,old,278,,,,,,,,
,,,,,,,,8,2021-01-15_16h40.38.081,premce3DEU_ses-02_part-02_label-phase2,2020.1.2,MacIntel,60,left,2.086,3,0.258,0,79,79,55,1,stimuli/objects/dogsled.jpg,left,old,216,,,,,,,,
,,,,,,,,8,2021-01-15_16h40.38.081,premce3DEU_ses-02_part-02_label-phase2,2020.1.2,MacIntel,60,right,0.889,2,0.289,0,80,80,5,1,stimuli/objects/wheelchair.jpg,left,old,166,,,,,,,,
,,,,,,,,8,2021-01-15_16h40.38.081,premce3DEU_ses-02_part-02_label-phase2,2020.1.2,MacIntel,60,right,0.941,2,0.013,0,81,81,101,1,stimuli/objects/microphone01.jpg,right,new,262,,,,,,,,
,,,,,,,,8,2021-01-15_16h40.38.081,premce3DEU_ses-02_part-02_label-phase2,2020.1.2,MacIntel,60,left,0.912,4,0.216,0,82,82,146,1,stimuli/objects/tie02.jpg,left,old,307,,,,,,,,
,,,,,,,,8,2021-01-15_16h40.38.081,premce3DEU_ses-02_part-02_label-phase2,2020.1.2,MacIntel,60,right,1.636,2,0.712,0,83,83,118,1,stimuli/objects/wallclock.jpg,right,new,279,,,,,,,,
,,,,,,,,8,2021-01-15_16h40.38.081,premce3DEU_ses-02_part-02_label-phase2,2020.1.2,MacIntel,60,right,0.722,2,0.29,0,84,84,150,1,stimuli/objects/strap.jpg,right,new,311,,,,,,,,
,,,,,,,,8,2021-01-15_16h40.38.081,premce3DEU_ses-02_part-02_label-phase2,2020.1.2,MacIntel,60,left,1.652,2,0.427,0,85,85,119,1,stimuli/objects/sandbarshark.jpg,right,new,280,,,,,,,,
,,,,,,,,8,2021-01-15_16h40.38.081,premce3DEU_ses-02_part-02_label-phase2,2020.1.2,MacIntel,60,right,1.113,2,0.144,0,86,86,57,1,stimuli/objects/spaghetti01.jpg,right,new,218,,,,,,,,
,,,,,,,,8,2021-01-15_16h40.38.081,premce3DEU_ses-02_part-02_label-phase2,2020.1.2,MacIntel,60,right,1.478,2,0.6,0,87,87,68,1,stimuli/objects/drumset.jpg,right,new,229,,,,,,,,
,,,,,,,,8,2021-01-15_16h40.38.081,premce3DEU_ses-02_part-02_label-phase2,2020.1.2,MacIntel,60,right,0.849,2,0.113,0,88,88,120,1,stimuli/objects/airhockeytable.jpg,right,new,281,,,,,,,,
,,,,,,,,8,2021-01-15_16h40.38.081,premce3DEU_ses-02_part-02_label-phase2,2020.1.2,MacIntel,60,right,1.208,3,0.264,0,89,89,143,1,stimuli/objects/taxisign.jpg,right,new,304,,,,,,,,
,,,,,,,,8,2021-01-15_16h40.38.081,premce3DEU_ses-02_part-02_label-phase2,2020.1.2,MacIntel,60,left,1.334,4,0.179,0,90,90,155,1,stimuli/objects/fishingrod.jpg,left,old,316,,,,,,,,
,,,,,,,,8,2021-01-15_16h40.38.081,premce3DEU_ses-02_part-02_label-phase2,2020.1.2,MacIntel,60,right,0.885,2,0.404,0,91,91,49,1,stimuli/objects/surfboard.jpg,left,old,210,,,,,,,,
,,,,,,,,8,2021-01-15_16h40.38.081,premce3DEU_ses-02_part-02_label-phase2,2020.1.2,MacIntel,60,left,1.381,3,0.225,0,92,92,22,1,stimuli/objects/crab01.jpg,left,old,183,,,,,,,,
,,,,,,,,8,2021-01-15_16h40.38.081,premce3DEU_ses-02_part-02_label-phase2,2020.1.2,MacIntel,60,right,0.994,2,0.244,0,93,93,45,1,stimuli/objects/siamesecat.jpg,right,new,206,,,,,,,,
,,,,,,,,8,2021-01-15_16h40.38.081,premce3DEU_ses-02_part-02_label-phase2,2020.1.2,MacIntel,60,right,0.809,2,0.336,0,94,94,99,1,stimuli/objects/bacon.jpg,left,old,260,,,,,,,,
,,,,,,,,8,2021-01-15_16h40.38.081,premce3DEU_ses-02_part-02_label-phase2,2020.1.2,MacIntel,60,right,0.694,2,0.422,0,95,95,48,1,stimuli/objects/rubikcube.jpg,right,new,209,,,,,,,,
,,,,,,,,8,2021-01-15_16h40.38.081,premce3DEU_ses-02_part-02_label-phase2,2020.1.2,MacIntel,60,left,1.076,3,0.267,0,96,96,156,1,stimuli/objects/shovel01.jpg,left,old,317,,,,,,,,
,,,,,,,,8,2021-01-15_16h40.38.081,premce3DEU_ses-02_part-02_label-phase2,2020.1.2,MacIntel,60,right,0.715,2,0.05,0,97,97,61,1,stimuli/objects/parrot01.jpg,right,new,222,,,,,,,,
,,,,,,,,8,2021-01-15_16h40.38.081,premce3DEU_ses-02_part-02_label-phase2,2020.1.2,MacIntel,60,right,0.783,2,0.538,0,98,98,33,1,stimuli/objects/noparkingsign.jpg,right,new,194,,,,,,,,
,,,,,,,,8,2021-01-15_16h40.38.081,premce3DEU_ses-02_part-02_label-phase2,2020.1.2,MacIntel,60,left,1.205,4,0.329,0,99,99,154,1,stimuli/objects/frisbee.jpg,left,old,315,,,,,,,,
,,,,,,,,8,2021-01-15_16h40.38.081,premce3DEU_ses-02_part-02_label-phase2,2020.1.2,MacIntel,60,left,1.074,4,0.074,0,100,100,139,1,stimuli/objects/locomotive.jpg,left,old,300,,,,,,,,
,,,,,,,,8,2021-01-15_16h40.38.081,premce3DEU_ses-02_part-02_label-phase2,2020.1.2,MacIntel,60,left,1.121,4,0.318,0,101,101,34,1,stimuli/objects/shelves.jpg,left,old,195,,,,,,,,
,,,,,,,,8,2021-01-15_16h40.38.081,premce3DEU_ses-02_part-02_label-phase2,2020.1.2,MacIntel,60,right,0.798,2,0.39,0,102,102,21,1,stimuli/objects/gorilla.jpg,right,new,182,,,,,,,,
,,,,,,,,8,2021-01-15_16h40.38.081,premce3DEU_ses-02_part-02_label-phase2,2020.1.2,MacIntel,60,right,0.926,2,0.345,0,103,103,9,1,stimuli/objects/flag.jpg,right,new,170,,,,,,,,
,,,,,,,,8,2021-01-15_16h40.38.081,premce3DEU_ses-02_part-02_label-phase2,2020.1.2,MacIntel,60,right,1.965,2,0.079,0,104,104,65,1,stimuli/objects/spacerover.jpg,right,new,226,,,,,,,,
,,,,,,,,8,2021-01-15_16h40.38.081,premce3DEU_ses-02_part-02_label-phase2,2020.1.2,MacIntel,60,right,0.823,2,0.394,0,105,105,70,1,stimuli/objects/cormorant.jpg,right,new,231,,,,,,,,
,,,,,,,,8,2021-01-15_16h40.38.081,premce3DEU_ses-02_part-02_label-phase2,2020.1.2,MacIntel,60,right,0.963,2,0.127,0,106,106,159,1,stimuli/objects/footballhelmet.jpg,left,old,320,,,,,,,,
,,,,,,,,8,2021-01-15_16h40.38.081,premce3DEU_ses-02_part-02_label-phase2,2020.1.2,MacIntel,60,right,0.815,2,0.173,0,107,107,144,1,stimuli/objects/walkietalkie.jpg,right,new,305,,,,,,,,
,,,,,,,,8,2021-01-15_16h40.38.081,premce3DEU_ses-02_part-02_label-phase2,2020.1.2,MacIntel,60,right,0.812,2,0.034,0,108,108,158,1,stimuli/objects/bowrake.jpg,right,new,319,,,,,,,,
,,,,,,,,8,2021-01-15_16h40.38.081,premce3DEU_ses-02_part-02_label-phase2,2020.1.2,MacIntel,60,right,1.178,2,0.174,0,109,109,96,1,stimuli/objects/hockeystick.jpg,left,old,257,,,,,,,,
,,,,,,,,8,2021-01-15_16h40.38.081,premce3DEU_ses-02_part-02_label-phase2,2020.1.2,MacIntel,60,right,0.991,2,0.026,0,110,110,11,1,stimuli/objects/dolphin01.jpg,left,old,172,,,,,,,,
,,,,,,,,8,2021-01-15_16h40.38.081,premce3DEU_ses-02_part-02_label-phase2,2020.1.2,MacIntel,60,right,1.168,2,0.081,0,111,111,69,1,stimuli/objects/bumpercar.jpg,right,new,230,,,,,,,,
,,,,,,,,8,2021-01-15_16h40.38.081,premce3DEU_ses-02_part-02_label-phase2,2020.1.2,MacIntel,60,right,2.328,2,0.285,0,112,112,106,1,stimuli/objects/squirrel.jpg,right,new,267,,,,,,,,
,,,,,,,,8,2021-01-15_16h40.38.081,premce3DEU_ses-02_part-02_label-phase2,2020.1.2,MacIntel,60,right,0.842,2,0.028,0,113,113,121,1,stimuli/objects/shield02.jpg,right,new,282,,,,,,,,
,,,,,,,,8,2021-01-15_16h40.38.081,premce3DEU_ses-02_part-02_label-phase2,2020.1.2,MacIntel,60,left,1.164,3,0.492,0,114,114,89,1,stimuli/objects/cruiseship.jpg,left,old,250,,,,,,,,
,,,,,,,,8,2021-01-15_16h40.38.081,premce3DEU_ses-02_part-02_label-phase2,2020.1.2,MacIntel,60,left,1.201,4,0.333,0,115,115,125,1,stimuli/objects/whiteout.jpg,left,old,286,,,,,,,,
,,,,,,,,8,2021-01-15_16h40.38.081,premce3DEU_ses-02_part-02_label-phase2,2020.1.2,MacIntel,60,left,2.023,3,0.328,0,116,116,105,1,stimuli/objects/beerbottle.jpg,left,old,266,,,,,,,,
,,,,,,,,8,2021-01-15_16h40.38.081,premce3DEU_ses-02_part-02_label-phase2,2020.1.2,MacIntel,60,right,1.724,2,0.313,0,117,117,130,1,stimuli/objects/pirateflag.jpg,left,old,291,,,,,,,,
,,,,,,,,8,2021-01-15_16h40.38.081,premce3DEU_ses-02_part-02_label-phase2,2020.1.2,MacIntel,60,right,0.859,2,0.216,0,118,118,35,1,stimuli/objects/xylophone.jpg,left,old,196,,,,,,,,
,,,,,,,,8,2021-01-15_16h40.38.081,premce3DEU_ses-02_part-02_label-phase2,2020.1.2,MacIntel,60,right,0.823,2,0.259,0,119,119,17,1,stimuli/objects/saltshaker03a.jpg,right,new,178,,,,,,,,
,,,,,,,,8,2021-01-15_16h40.38.081,premce3DEU_ses-02_part-02_label-phase2,2020.1.2,MacIntel,60,right,0.919,2,0.232,0,120,120,50,1,stimuli/objects/cowbell.jpg,right,new,211,,,,,,,,
,,,,,,,,8,2021-01-15_16h40.38.081,premce3DEU_ses-02_part-02_label-phase2,2020.1.2,MacIntel,60,right,1.571,2,0.128,0,121,121,38,1,stimuli/objects/bread.jpg,right,new,199,,,,,,,,
,,,,,,,,8,2021-01-15_16h40.38.081,premce3DEU_ses-02_part-02_label-phase2,2020.1.2,MacIntel,60,right,0.704,2,0.348,0,122,122,63,1,stimuli/objects/pin.jpg,right,new,224,,,,,,,,
,,,,,,,,8,2021-01-15_16h40.38.081,premce3DEU_ses-02_part-02_label-phase2,2020.1.2,MacIntel,60,right,0.638,2,0.21,0,123,123,116,1,stimuli/objects/rollerblade.jpg,left,old,277,,,,,,,,
,,,,,,,,8,2021-01-15_16h40.38.081,premce3DEU_ses-02_part-02_label-phase2,2020.1.2,MacIntel,60,left,0.992,4,0.322,0,124,124,153,1,stimuli/objects/fluorescentlightbulb.jpg,left,old,314,,,,,,,,
,,,,,,,,8,2021-01-15_16h40.38.081,premce3DEU_ses-02_part-02_label-phase2,2020.1.2,MacIntel,60,left,1.436,4,0.365,0,125,125,85,1,stimuli/objects/skiboot01a.jpg,left,old,246,,,,,,,,
,,,,,,,,8,2021-01-15_16h40.38.081,premce3DEU_ses-02_part-02_label-phase2,2020.1.2,MacIntel,60,left,1.064,4,0.801,0,126,126,4,1,stimuli/objects/blender.jpg,left,old,165,,,,,,,,
,,,,,,,,8,2021-01-15_16h40.38.081,premce3DEU_ses-02_part-02_label-phase2,2020.1.2,MacIntel,60,right,0.87,2,0.738,0,127,127,92,1,stimuli/objects/mirror02.jpg,left,old,253,,,,,,,,
,,,,,,,,8,2021-01-15_16h40.38.081,premce3DEU_ses-02_part-02_label-phase2,2020.1.2,MacIntel,60,left,1.648,3,0.283,0,128,128,18,1,stimuli/objects/showerhead01.jpg,left,old,179,,,,,,,,
,,,,,,,,8,2021-01-15_16h40.38.081,premce3DEU_ses-02_part-02_label-phase2,2020.1.2,MacIntel,60,right,0.985,2,0.187,0,129,129,0,1,stimuli/objects/hulahoop.jpg,left,old,161,,,,,,,,
,,,,,,,,8,2021-01-15_16h40.38.081,premce3DEU_ses-02_part-02_label-phase2,2020.1.2,MacIntel,60,left,1.114,4,0.228,0,130,130,14,1,stimuli/objects/ipad02.jpg,left,old,175,,,,,,,,
,,,,,,,,8,2021-01-15_16h40.38.081,premce3DEU_ses-02_part-02_label-phase2,2020.1.2,MacIntel,60,left,1.018,4,0.187,0,131,131,2,1,stimuli/objects/moon.jpg,left,old,163,,,,,,,,
,,,,,,,,8,2021-01-15_16h40.38.081,premce3DEU_ses-02_part-02_label-phase2,2020.1.2,MacIntel,60,left,1.222,3,0.227,0,132,132,71,1,stimuli/objects/tennisracket.jpg,right,new,232,,,,,,,,
,,,,,,,,8,2021-01-15_16h40.38.081,premce3DEU_ses-02_part-02_label-phase2,2020.1.2,MacIntel,60,right,0.877,2,0.192,0,133,133,27,1,stimuli/objects/tombstone.jpg,right,new,188,,,,,,,,
,,,,,,,,8,2021-01-15_16h40.38.081,premce3DEU_ses-02_part-02_label-phase2,2020.1.2,MacIntel,60,right,0.894,2,0.165,0,134,134,100,1,stimuli/objects/doubledoors.jpg,left,old,261,,,,,,,,
,,,,,,,,8,2021-01-15_16h40.38.081,premce3DEU_ses-02_part-02_label-phase2,2020.1.2,MacIntel,60,right,0.983,1,0.928,0,135,135,124,1,stimuli/objects/swing.jpg,right,new,285,,,,,,,,
,,,,,,,,8,2021-01-15_16h40.38.081,premce3DEU_ses-02_part-02_label-phase2,2020.1.2,MacIntel,60,left,0.904,3,0.283,0,136,136,41,1,stimuli/objects/zebra.jpg,left,old,202,,,,,,,,
,,,,,,,,8,2021-01-15_16h40.38.081,premce3DEU_ses-02_part-02_label-phase2,2020.1.2,MacIntel,60,right,0.961,1,0.318,0,137,137,137,1,stimuli/objects/waterfall.jpg,right,new,298,,,,,,,,
,,,,,,,,8,2021-01-15_16h40.38.081,premce3DEU_ses-02_part-02_label-phase2,2020.1.2,MacIntel,60,left,1.072,4,0.19,0,138,138,148,1,stimuli/objects/snowglobe.jpg,left,old,309,,,,,,,,
,,,,,,,,8,2021-01-15_16h40.38.081,premce3DEU_ses-02_part-02_label-phase2,2020.1.2,MacIntel,60,left,1.032,4,0.288,0,139,139,97,1,stimuli/objects/greywolf.jpg,left,old,258,,,,,,,,
,,,,,,,,8,2021-01-15_16h40.38.081,premce3DEU_ses-02_part-02_label-phase2,2020.1.2,MacIntel,60,left,0.975,4,0.243,0,140,140,3,1,stimuli/objects/bathtub.jpg,left,old,164,,,,,,,,
,,,,,,,,8,2021-01-15_16h40.38.081,premce3DEU_ses-02_part-02_label-phase2,2020.1.2,MacIntel,60,left,1.19,4,0.006,0,141,141,132,1,stimuli/objects/windshieldwiper02.jpg,left,old,293,,,,,,,,
,,,,,,,,8,2021-01-15_16h40.38.081,premce3DEU_ses-02_part-02_label-phase2,2020.1.2,MacIntel,60,right,0.778,1,0.319,0,142,142,140,1,stimuli/objects/treadmill.jpg,left,old,301,,,,,,,,
,,,,,,,,8,2021-01-15_16h40.38.081,premce3DEU_ses-02_part-02_label-phase2,2020.1.2,MacIntel,60,left,1.207,4,0.133,0,143,143,36,1,stimuli/objects/sandcastle.jpg,left,old,197,,,,,,,,
,,,,,,,,8,2021-01-15_16h40.38.081,premce3DEU_ses-02_part-02_label-phase2,2020.1.2,MacIntel,60,left,1.347,3,0.127,0,144,144,126,1,stimuli/objects/birdfeeder.jpg,left,old,287,,,,,,,,
,,,,,,,,8,2021-01-15_16h40.38.081,premce3DEU_ses-02_part-02_label-phase2,2020.1.2,MacIntel,60,right,0.9,2,0.077,0,145,145,135,1,stimuli/objects/penguin.jpg,right,new,296,,,,,,,,
,,,,,,,,8,2021-01-15_16h40.38.081,premce3DEU_ses-02_part-02_label-phase2,2020.1.2,MacIntel,60,right,1.104,2,0.759,0,146,146,78,1,stimuli/objects/hockeypuck.jpg,left,old,239,,,,,,,,
,,,,,,,,8,2021-01-15_16h40.38.081,premce3DEU_ses-02_part-02_label-phase2,2020.1.2,MacIntel,60,left,0.781,4,0.501,0,147,147,86,1,stimuli/objects/trafficlight.jpg,left,old,247,,,,,,,,
,,,,,,,,8,2021-01-15_16h40.38.081,premce3DEU_ses-02_part-02_label-phase2,2020.1.2,MacIntel,60,left,1.106,2,0.825,0,148,148,79,1,stimuli/objects/polarbear.jpg,left,old,240,,,,,,,,
,,,,,,,,8,2021-01-15_16h40.38.081,premce3DEU_ses-02_part-02_label-phase2,2020.1.2,MacIntel,60,right,1.415,1,0.325,0,149,149,6,1,stimuli/objects/popcorn.jpg,right,new,167,,,,,,,,
,,,,,,,,8,2021-01-15_16h40.38.081,premce3DEU_ses-02_part-02_label-phase2,2020.1.2,MacIntel,60,left,0.869,4,0.246,0,150,150,83,1,stimuli/objects/recyclingbin.jpg,left,old,244,,,,,,,,
,,,,,,,,8,2021-01-15_16h40.38.081,premce3DEU_ses-02_part-02_label-phase2,2020.1.2,MacIntel,60,left,0.926,3,0.079,0,151,151,127,1,stimuli/objects/shelf.jpg,right,new,288,,,,,,,,
,,,,,,,,8,2021-01-15_16h40.38.081,premce3DEU_ses-02_part-02_label-phase2,2020.1.2,MacIntel,60,right,0.851,1,0.006,0,152,152,19,1,stimuli/objects/zipper.jpg,right,new,180,,,,,,,,
,,,,,,,,8,2021-01-15_16h40.38.081,premce3DEU_ses-02_part-02_label-phase2,2020.1.2,MacIntel,60,right,0.837,3,1.281,0,153,153,122,1,stimuli/objects/lip.jpg,right,new,283,,,,,,,,
,,,,,,,,8,2021-01-15_16h40.38.081,premce3DEU_ses-02_part-02_label-phase2,2020.1.2,MacIntel,60,left,1.514,2,0.826,0,154,154,59,1,stimuli/objects/nosmokingsign.jpg,right,new,220,,,,,,,,
,,,,,,,,8,2021-01-15_16h40.38.081,premce3DEU_ses-02_part-02_label-phase2,2020.1.2,MacIntel,60,left,0.822,4,0.237,0,155,155,37,1,stimuli/objects/football.jpg,left,old,198,,,,,,,,
,,,,,,,,8,2021-01-15_16h40.38.081,premce3DEU_ses-02_part-02_label-phase2,2020.1.2,MacIntel,60,left,0.879,4,0.395,0,156,156,24,1,stimuli/objects/jaguar.jpg,left,old,185,,,,,,,,
,,,,,,,,8,2021-01-15_16h40.38.081,premce3DEU_ses-02_part-02_label-phase2,2020.1.2,MacIntel,60,left,1.146,3,0.277,0,157,157,103,1,stimuli/objects/seagull.jpg,left,old,264,,,,,,,,
,,,,,,,,8,2021-01-15_16h40.38.081,premce3DEU_ses-02_part-02_label-phase2,2020.1.2,MacIntel,60,right,0.829,1,0.207,0,158,158,31,1,stimuli/objects/horseshoe.jpg,right,new,192,,,,,,,,
,,,,,,,,8,2021-01-15_16h40.38.081,premce3DEU_ses-02_part-02_label-phase2,2020.1.2,MacIntel,60,left,1.112,3,0.489,0,159,159,82,1,stimuli/objects/duck01.jpg,left,old,243,,,,,,,,
,,,,,,,,8,2021-01-15_16h40.38.081,premce3DEU_ses-02_part-02_label-phase2,2020.1.2,MacIntel,60,,,,,,,,,,,,,,space,14.075,0,0,0,1,1,ImagesforRecog2.csv
,,,,,,,,8,2021-01-15_16h40.38.081,premce3DEU_ses-02_part-02_label-phase2,2020.1.2,MacIntel,60,right,1.205,2,0.339,0,0,0,25,1,stimuli/objects/honeycomb.jpg,right,new,26,,,,,,,,
,,,,,,,,8,2021-01-15_16h40.38.081,premce3DEU_ses-02_part-02_label-phase2,2020.1.2,MacIntel,60,right,0.591,2,1.206,0,1,1,80,1,stimuli/objects/tree.jpg,right,new,81,,,,,,,,
,,,,,,,,8,2021-01-15_16h40.38.081,premce3DEU_ses-02_part-02_label-phase2,2020.1.2,MacIntel,60,right,1.009,2,0.349,0,2,2,62,1,stimuli/objects/trophy01.jpg,left,old,63,,,,,,,,
,,,,,,,,8,2021-01-15_16h40.38.081,premce3DEU_ses-02_part-02_label-phase2,2020.1.2,MacIntel,60,right,0.697,2,0.297,0,3,3,112,1,stimuli/objects/tank.jpg,right,new,113,,,,,,,,
,,,,,,,,8,2021-01-15_16h40.38.081,premce3DEU_ses-02_part-02_label-phase2,2020.1.2,MacIntel,60,right,0.727,2,0.307,0,4,4,141,1,stimuli/objects/stroller.jpg,right,new,142,,,,,,,,
,,,,,,,,8,2021-01-15_16h40.38.081,premce3DEU_ses-02_part-02_label-phase2,2020.1.2,MacIntel,60,right,0.944,2,0.287,0,5,5,132,1,stimuli/objects/shower.jpg,left,old,133,,,,,,,,
,,,,,,,,8,2021-01-15_16h40.38.081,premce3DEU_ses-02_part-02_label-phase2,2020.1.2,MacIntel,60,right,0.954,1,0.535,0,6,6,143,1,stimuli/objects/faucet.jpg,right,new,144,,,,,,,,
,,,,,,,,8,2021-01-15_16h40.38.081,premce3DEU_ses-02_part-02_label-phase2,2020.1.2,MacIntel,60,right,0.613,1,0.255,0,7,7,119,1,stimuli/objects/kite.jpg,right,new,120,,,,,,,,
,,,,,,,,8,2021-01-15_16h40.38.081,premce3DEU_ses-02_part-02_label-phase2,2020.1.2,MacIntel,60,right,0.566,1,0.264,0,8,8,42,1,stimuli/objects/snowshoe.jpg,right,new,43,,,,,,,,
,,,,,,,,8,2021-01-15_16h40.38.081,premce3DEU_ses-02_part-02_label-phase2,2020.1.2,MacIntel,60,right,0.759,1,0.259,0,9,9,116,1,stimuli/objects/toucan.jpg,right,new,117,,,,,,,,
,,,,,,,,8,2021-01-15_16h40.38.081,premce3DEU_ses-02_part-02_label-phase2,2020.1.2,MacIntel,60,left,1.003,3,0.376,0,10,10,124,1,stimuli/objects/handheldtelescope.jpg,left,old,125,,,,,,,,
,,,,,,,,8,2021-01-15_16h40.38.081,premce3DEU_ses-02_part-02_label-phase2,2020.1.2,MacIntel,60,left,1.026,2,0.638,0,11,11,110,1,stimuli/objects/foosballtable.jpg,right,new,111,,,,,,,,
,,,,,,,,8,2021-01-15_16h40.38.081,premce3DEU_ses-02_part-02_label-phase2,2020.1.2,MacIntel,60,left,0.97,3,0.319,0,12,12,3,1,stimuli/objects/vacuumcleaner01.jpg,left,old,4,,,,,,,,
,,,,,,,,8,2021-01-15_16h40.38.081,premce3DEU_ses-02_part-02_label-phase2,2020.1.2,MacIntel,60,right,1.852,2,0.436,0,13,13,159,1,stimuli/objects/stairs.jpg,right,new,160,,,,,,,,
,,,,,,,,8,2021-01-15_16h40.38.081,premce3DEU_ses-02_part-02_label-phase2,2020.1.2,MacIntel,60,left,0.981,4,0.025,0,14,14,68,1,stimuli/objects/cuttlefish.jpg,left,old,69,,,,,,,,
,,,,,,,,8,2021-01-15_16h40.38.081,premce3DEU_ses-02_part-02_label-phase2,2020.1.2,MacIntel,60,left,0.853,4,0.233,0,15,15,69,1,stimuli/objects/granolabar01.jpg,left,old,70,,,,,,,,
,,,,,,,,8,2021-01-15_16h40.38.081,premce3DEU_ses-02_part-02_label-phase2,2020.1.2,MacIntel,60,right,0.709,2,0.247,0,16,16,146,1,stimuli/objects/ant.jpg,right,new,147,,,,,,,,
,,,,,,,,8,2021-01-15_16h40.38.081,premce3DEU_ses-02_part-02_label-phase2,2020.1.2,MacIntel,60,right,1.666,2,0.864,0,17,17,58,1,stimuli/objects/beaver.jpg,left,old,59,,,,,,,,
,,,,,,,,8,2021-01-15_16h40.38.081,premce3DEU_ses-02_part-02_label-phase2,2020.1.2,MacIntel,60,left,1.052,2,0.424,0,18,18,90,1,stimuli/objects/trailer.jpg,right,new,91,,,,,,,,
,,,,,,,,8,2021-01-15_16h40.38.081,premce3DEU_ses-02_part-02_label-phase2,2020.1.2,MacIntel,60,left,1.074,4,0.567,0,19,19,29,1,stimuli/objects/snowman.jpg,left,old,30,,,,,,,,
,,,,,,,,8,2021-01-15_16h40.38.081,premce3DEU_ses-02_part-02_label-phase2,2020.1.2,MacIntel,60,right,1.198,2,0.316,0,20,20,115,1,stimuli/objects/lantern03.jpg,left,old,116,,,,,,,,
,,,,,,,,8,2021-01-15_16h40.38.081,premce3DEU_ses-02_part-02_label-phase2,2020.1.2,MacIntel,60,right,0.782,2,0.473,0,21,21,8,1,stimuli/objects/englishcucumber.jpg,right,new,9,,,,,,,,
,,,,,,,,8,2021-01-15_16h40.38.081,premce3DEU_ses-02_part-02_label-phase2,2020.1.2,MacIntel,60,right,0.949,2,0.901,0,22,22,107,1,stimuli/objects/musicstand.jpg,left,old,108,,,,,,,,
,,,,,,,,8,2021-01-15_16h40.38.081,premce3DEU_ses-02_part-02_label-phase2,2020.1.2,MacIntel,60,left,0.931,4,0.308,0,23,23,127,1,stimuli/objects/sausage.jpg,left,old,128,,,,,,,,
,,,,,,,,8,2021-01-15_16h40.38.081,premce3DEU_ses-02_part-02_label-phase2,2020.1.2,MacIntel,60,left,1.095,2,0.849,0,24,24,99,1,stimuli/objects/waterfountain02.jpg,left,old,100,,,,,,,,
,,,,,,,,8,2021-01-15_16h40.38.081,premce3DEU_ses-02_part-02_label-phase2,2020.1.2,MacIntel,60,left,1.553,2,0.27,0,25,25,41,1,stimuli/objects/faxmachine.jpg,right,new,42,,,,,,,,
,,,,,,,,8,2021-01-15_16h40.38.081,premce3DEU_ses-02_part-02_label-phase2,2020.1.2,MacIntel,60,left,1.654,2,0.393,0,26,26,39,1,stimuli/objects/electrictoothbrush01c.jpg,right,new,40,,,,,,,,
,,,,,,,,8,2021-01-15_16h40.38.081,premce3DEU_ses-02_part-02_label-phase2,2020.1.2,MacIntel,60,right,0.75,1,0.242,0,27,27,11,1,stimuli/objects/cannon.jpg,left,old,12,,,,,,,,
,,,,,,,,8,2021-01-15_16h40.38.081,premce3DEU_ses-02_part-02_label-phase2,2020.1.2,MacIntel,60,left,0.912,4,0.447,0,28,28,77,1,stimuli/objects/fishskeleton.jpg,left,old,78,,,,,,,,
,,,,,,,,8,2021-01-15_16h40.38.081,premce3DEU_ses-02_part-02_label-phase2,2020.1.2,MacIntel,60,left,1.443,4,0.149,0,29,29,15,1,stimuli/objects/dromedary.jpg,left,old,16,,,,,,,,
,,,,,,,,8,2021-01-15_16h40.38.081,premce3DEU_ses-02_part-02_label-phase2,2020.1.2,MacIntel,60,right,0.734,2,2.17,0,30,30,27,1,stimuli/objects/coffeemaker.jpg,left,old,28,,,,,,,,
,,,,,,,,8,2021-01-15_16h40.38.081,premce3DEU_ses-02_part-02_label-phase2,2020.1.2,MacIntel,60,right,0.888,2,0.337,0,31,31,76,1,stimuli/objects/morningstar.jpg,right,new,77,,,,,,,,
,,,,,,,,8,2021-01-15_16h40.38.081,premce3DEU_ses-02_part-02_label-phase2,2020.1.2,MacIntel,60,left,1.216,4,0.219,0,32,32,67,1,stimuli/objects/volleyball.jpg,left,old,68,,,,,,,,
,,,,,,,,8,2021-01-15_16h40.38.081,premce3DEU_ses-02_part-02_label-phase2,2020.1.2,MacIntel,60,right,1.22,1,0.183,0,33,33,155,1,stimuli/objects/calendar.jpg,right,new,156,,,,,,,,
,,,,,,,,8,2021-01-15_16h40.38.081,premce3DEU_ses-02_part-02_label-phase2,2020.1.2,MacIntel,60,right,0.903,1,0.279,0,34,34,38,1,stimuli/objects/pig.jpg,right,new,39,,,,,,,,
,,,,,,,,8,2021-01-15_16h40.38.081,premce3DEU_ses-02_part-02_label-phase2,2020.1.2,MacIntel,60,left,0.916,3,0.955,0,35,35,37,1,stimuli/objects/golfball.jpg,left,old,38,,,,,,,,
,,,,,,,,8,2021-01-15_16h40.38.081,premce3DEU_ses-02_part-02_label-phase2,2020.1.2,MacIntel,60,left,0.963,3,0.292,0,36,36,120,1,stimuli/objects/panda.jpg,left,old,121,,,,,,,,
,,,,,,,,8,2021-01-15_16h40.38.081,premce3DEU_ses-02_part-02_label-phase2,2020.1.2,MacIntel,60,left,0.892,4,0.163,0,37,37,114,1,stimuli/objects/star.jpg,left,old,115,,,,,,,,
,,,,,,,,8,2021-01-15_16h40.38.081,premce3DEU_ses-02_part-02_label-phase2,2020.1.2,MacIntel,60,left,1.244,4,0.092,0,38,38,14,1,stimuli/objects/canoepaddle02.jpg,left,old,15,,,,,,,,
,,,,,,,,8,2021-01-15_16h40.38.081,premce3DEU_ses-02_part-02_label-phase2,2020.1.2,MacIntel,60,right,1.107,1,0.316,0,39,39,138,1,stimuli/objects/cow.jpg,right,new,139,,,,,,,,
,,,,,,,,8,2021-01-15_16h40.38.081,premce3DEU_ses-02_part-02_label-phase2,2020.1.2,MacIntel,60,left,0.994,4,0.143,0,40,40,49,1,stimuli/objects/triangle.jpg,left,old,50,,,,,,,,
,,,,,,,,8,2021-01-15_16h40.38.081,premce3DEU_ses-02_part-02_label-phase2,2020.1.2,MacIntel,60,left,1.065,2,0.164,0,41,41,144,1,stimuli/objects/trombone.jpg,left,old,145,,,,,,,,
,,,,,,,,8,2021-01-15_16h40.38.081,premce3DEU_ses-02_part-02_label-phase2,2020.1.2,MacIntel,60,right,1.083,1,0.327,0,42,42,12,1,stimuli/objects/pigeon.jpg,right,new,13,,,,,,,,
,,,,,,,,8,2021-01-15_16h40.38.081,premce3DEU_ses-02_part-02_label-phase2,2020.1.2,MacIntel,60,right,0.905,1,0.314,0,43,43,137,1,stimuli/objects/brownsugar.jpg,left,old,138,,,,,,,,
,,,,,,,,8,2021-01-15_16h40.38.081,premce3DEU_ses-02_part-02_label-phase2,2020.1.2,MacIntel,60,right,0.905,2,0.704,0,44,44,145,1,stimuli/objects/church.jpg,right,new,146,,,,,,,,
,,,,,,,,8,2021-01-15_16h40.38.081,premce3DEU_ses-02_part-02_label-phase2,2020.1.2,MacIntel,60,right,1.249,2,0.174,0,45,45,19,1,stimuli/objects/crosscountryski.jpg,right,new,20,,,,,,,,
,,,,,,,,8,2021-01-15_16h40.38.081,premce3DEU_ses-02_part-02_label-phase2,2020.1.2,MacIntel,60,right,0.82,2,0.191,0,46,46,126,1,stimuli/objects/bat.jpg,right,new,127,,,,,,,,
,,,,,,,,8,2021-01-15_16h40.38.081,premce3DEU_ses-02_part-02_label-phase2,2020.1.2,MacIntel,60,right,0.531,2,0.175,0,47,47,72,1,stimuli/objects/totempole.jpg,right,new,73,,,,,,,,
,,,,,,,,8,2021-01-15_16h40.38.081,premce3DEU_ses-02_part-02_label-phase2,2020.1.2,MacIntel,60,left,1.236,2,0.404,0,48,48,66,1,stimuli/objects/shipinabottle.jpg,right,new,67,,,,,,,,
,,,,,,,,8,2021-01-15_16h40.38.081,premce3DEU_ses-02_part-02_label-phase2,2020.1.2,MacIntel,60,left,1.417,2,0.267,0,49,49,157,1,stimuli/objects/cookingpot.jpg,left,old,158,,,,,,,,
,,,,,,,,8,2021-01-15_16h40.38.081,premce3DEU_ses-02_part-02_label-phase2,2020.1.2,MacIntel,60,right,1.094,1,0.723,0,50,50,135,1,stimuli/objects/basketball01.jpg,left,old,136,,,,,,,,
,,,,,,,,8,2021-01-15_16h40.38.081,premce3DEU_ses-02_part-02_label-phase2,2020.1.2,MacIntel,60,right,1.139,1,0.506,0,51,51,24,1,stimuli/objects/icecube02.jpg,right,new,25,,,,,,,,
,,,,,,,,8,2021-01-15_16h40.38.081,premce3DEU_ses-02_part-02_label-phase2,2020.1.2,MacIntel,60,right,0.684,1,0.311,0,52,52,125,1,stimuli/objects/freezer02.jpg,right,new,126,,,,,,,,
,,,,,,,,8,2021-01-15_16h40.38.081,premce3DEU_ses-02_part-02_label-phase2,2020.1.2,MacIntel,60,left,2.26,2,0.316,0,53,53,56,1,stimuli/objects/jeans01.jpg,left,old,57,,,,,,,,
,,,,,,,,8,2021-01-15_16h40.38.081,premce3DEU_ses-02_part-02_label-phase2,2020.1.2,MacIntel,60,right,0.822,1,0.315,0,54,54,92,1,stimuli/objects/armchair02.jpg,right,new,93,,,,,,,,
,,,,,,,,8,2021-01-15_16h40.38.081,premce3DEU_ses-02_part-02_label-phase2,2020.1.2,MacIntel,60,right,0.686,1,0.125,0,55,55,59,1,stimuli/objects/birdhouse.jpg,right,new,60,,,,,,,,
,,,,,,,,8,2021-01-15_16h40.38.081,premce3DEU_ses-02_part-02_label-phase2,2020.1.2,MacIntel,60,left,1.37,2,0.154,0,56,56,142,1,stimuli/objects/giraffe.jpg,left,old,143,,,,,,,,
,,,,,,,,8,2021-01-15_16h40.38.081,premce3DEU_ses-02_part-02_label-phase2,2020.1.2,MacIntel,60,right,0.645,1,0.157,0,57,57,81,1,stimuli/objects/lighthouse.jpg,right,new,82,,,,,,,,
,,,,,,,,8,2021-01-15_16h40.38.081,premce3DEU_ses-02_part-02_label-phase2,2020.1.2,MacIntel,60,right,0.811,1,0.795,0,58,58,5,1,stimuli/objects/horse.jpg,left,old,6,,,,,,,,
,,,,,,,,8,2021-01-15_16h40.38.081,premce3DEU_ses-02_part-02_label-phase2,2020.1.2,MacIntel,60,left,0.899,4,0.352,0,59,59,136,1,stimuli/objects/wheat.jpg,right,new,137,,,,,,,,
,,,,,,,,8,2021-01-15_16h40.38.081,premce3DEU_ses-02_part-02_label-phase2,2020.1.2,MacIntel,60,right,0.939,1,0.061,0,60,60,147,1,stimuli/objects/toiletbrush.jpg,right,new,148,,,,,,,,
,,,,,,,,8,2021-01-15_16h40.38.081,premce3DEU_ses-02_part-02_label-phase2,2020.1.2,MacIntel,60,left,0.913,4,0.063,0,61,61,35,1,stimuli/objects/skihelmet01.jpg,left,old,36,,,,,,,,
,,,,,,,,8,2021-01-15_16h40.38.081,premce3DEU_ses-02_part-02_label-phase2,2020.1.2,MacIntel,60,right,0.731,2,0.198,0,62,62,43,1,stimuli/objects/ostrich.jpg,right,new,44,,,,,,,,
,,,,,,,,8,2021-01-15_16h40.38.081,premce3DEU_ses-02_part-02_label-phase2,2020.1.2,MacIntel,60,left,1.255,2,0.292,0,63,63,150,1,stimuli/objects/eiffeltower.jpg,right,new,151,,,,,,,,
,,,,,,,,8,2021-01-15_16h40.38.081,premce3DEU_ses-02_part-02_label-phase2,2020.1.2,MacIntel,60,left,0.945,4,0.124,0,64,64,75,1,stimuli/objects/barn.jpg,left,old,76,,,,,,,,
,,,,,,,,8,2021-01-15_16h40.38.081,premce3DEU_ses-02_part-02_label-phase2,2020.1.2,MacIntel,60,left,1.307,2,0.048,0,65,65,106,1,stimuli/objects/helicopter.jpg,right,new,107,,,,,,,,
,,,,,,,,8,2021-01-15_16h40.38.081,premce3DEU_ses-02_part-02_label-phase2,2020.1.2,MacIntel,60,right,1.054,1,0.045,0,66,66,54,1,stimuli/objects/toynutcracker.jpg,right,new,55,,,,,,,,
,,,,,,,,8,2021-01-15_16h40.38.081,premce3DEU_ses-02_part-02_label-phase2,2020.1.2,MacIntel,60,left,1.133,4,0.195,0,67,67,16,1,stimuli/objects/cactus.jpg,left,old,17,,,,,,,,
,,,,,,,,8,2021-01-15_16h40.38.081,premce3DEU_ses-02_part-02_label-phase2,2020.1.2,MacIntel,60,left,0.793,4,0.107,0,68,68,44,1,stimuli/objects/artichoke01b.jpg,left,old,45,,,,,,,,
,,,,,,,,8,2021-01-15_16h40.38.081,premce3DEU_ses-02_part-02_label-phase2,2020.1.2,MacIntel,60,right,0.725,1,0.184,0,69,69,151,1,stimuli/objects/contactlens.jpg,left,old,152,,,,,,,,
,,,,,,,,8,2021-01-15_16h40.38.081,premce3DEU_ses-02_part-02_label-phase2,2020.1.2,MacIntel,60,left,1.144,2,0.062,0,70,70,18,1,stimuli/objects/pingpongtable.jpg,right,new,19,,,,,,,,
,,,,,,,,8,2021-01-15_16h40.38.081,premce3DEU_ses-02_part-02_label-phase2,2020.1.2,MacIntel,60,left,0.733,2,0.016,0,71,71,31,1,stimuli/objects/file.jpg,left,old,32,,,,,,,,
,,,,,,,,8,2021-01-15_16h40.38.081,premce3DEU_ses-02_part-02_label-phase2,2020.1.2,MacIntel,60,right,1.575,1,0.047,0,72,72,105,1,stimuli/objects/gps.jpg,left,old,106,,,,,,,,
,,,,,,,,8,2021-01-15_16h40.38.081,premce3DEU_ses-02_part-02_label-phase2,2020.1.2,MacIntel,60,right,0.887,2,0.724,0,73,73,53,1,stimuli/objects/honeybee.jpg,right,new,54,,,,,,,,
,,,,,,,,8,2021-01-15_16h40.38.081,premce3DEU_ses-02_part-02_label-phase2,2020.1.2,MacIntel,60,right,1.067,2,0.09,0,74,74,47,1,stimuli/objects/stepladder.jpg,left,old,48,,,,,,,,
,,,,,,,,8,2021-01-15_16h40.38.081,premce3DEU_ses-02_part-02_label-phase2,2020.1.2,MacIntel,60,left,1.158,3,1.46,0,75,75,45,1,stimuli/objects/fridge.jpg,left,old,46,,,,,,,,
,,,,,,,,8,2021-01-15_16h40.38.081,premce3DEU_ses-02_part-02_label-phase2,2020.1.2,MacIntel,60,left,1.031,4,0.528,0,76,76,78,1,stimuli/objects/monarchbutterfly.jpg,left,old,79,,,,,,,,
,,,,,,,,8,2021-01-15_16h40.38.081,premce3DEU_ses-02_part-02_label-phase2,2020.1.2,MacIntel,60,right,1.255,1,0.632,0,77,77,104,1,stimuli/objects/porcupine.jpg,left,old,105,,,,,,,,
,,,,,,,,8,2021-01-15_16h40.38.081,premce3DEU_ses-02_part-02_label-phase2,2020.1.2,MacIntel,60,left,1.224,4,0.121,0,78,78,153,1,stimuli/objects/coffeemachine.jpg,left,old,154,,,,,,,,
,,,,,,,,8,2021-01-15_16h40.38.081,premce3DEU_ses-02_part-02_label-phase2,2020.1.2,MacIntel,60,right,1.433,1,0.524,0,79,79,2,1,stimuli/objects/table01.jpg,left,old,3,,,,,,,,
,,,,,,,,8,2021-01-15_16h40.38.081,premce3DEU_ses-02_part-02_label-phase2,2020.1.2,MacIntel,60,right,0.952,1,0.287,0,80,80,129,1,stimuli/objects/lawnmower.jpg,right,new,130,,,,,,,,
,,,,,,,,8,2021-01-15_16h40.38.081,premce3DEU_ses-02_part-02_label-phase2,2020.1.2,MacIntel,60,left,0.953,4,0.193,0,81,81,140,1,stimuli/objects/exitsign.jpg,left,old,141,,,,,,,,
,,,,,,,,8,2021-01-15_16h40.38.081,premce3DEU_ses-02_part-02_label-phase2,2020.1.2,MacIntel,60,right,0.94,2,0.436,0,82,82,133,1,stimuli/objects/sink.jpg,right,new,134,,,,,,,,
,,,,,,,,8,2021-01-15_16h40.38.081,premce3DEU_ses-02_part-02_label-phase2,2020.1.2,MacIntel,60,right,0.963,2,0.337,0,83,83,50,1,stimuli/objects/lionstatue.jpg,left,old,51,,,,,,,,
,,,,,,,,8,2021-01-15_16h40.38.081,premce3DEU_ses-02_part-02_label-phase2,2020.1.2,MacIntel,60,right,0.882,2,0.197,0,84,84,128,1,stimuli/objects/makiroll.jpg,right,new,129,,,,,,,,
,,,,,,,,8,2021-01-15_16h40.38.081,premce3DEU_ses-02_part-02_label-phase2,2020.1.2,MacIntel,60,right,0.961,2,1.268,0,85,85,0,1,stimuli/objects/treestump.jpg,left,old,1,,,,,,,,
,,,,,,,,8,2021-01-15_16h40.38.081,premce3DEU_ses-02_part-02_label-phase2,2020.1.2,MacIntel,60,left,1.135,4,0.101,0,86,86,88,1,stimuli/objects/jackrabbit.jpg,left,old,89,,,,,,,,
,,,,,,,,8,2021-01-15_16h40.38.081,premce3DEU_ses-02_part-02_label-phase2,2020.1.2,MacIntel,60,right,0.917,2,0.006,0,87,87,118,1,stimuli/objects/microwave.jpg,left,old,119,,,,,,,,
,,,,,,,,8,2021-01-15_16h40.38.081,premce3DEU_ses-02_part-02_label-phase2,2020.1.2,MacIntel,60,left,1.859,3,1.448,0,88,88,74,1,stimuli/objects/windturbine.jpg,left,old,75,,,,,,,,
,,,,,,,,8,2021-01-15_16h40.38.081,premce3DEU_ses-02_part-02_label-phase2,2020.1.2,MacIntel,60,right,1.086,2,0.641,0,89,89,131,1,stimuli/objects/missile.jpg,right,new,132,,,,,,,,
,,,,,,,,8,2021-01-15_16h40.38.081,premce3DEU_ses-02_part-02_label-phase2,2020.1.2,MacIntel,60,left,1.011,4,0.175,0,90,90,28,1,stimuli/objects/seaturtle.jpg,left,old,29,,,,,,,,
,,,,,,,,8,2021-01-15_16h40.38.081,premce3DEU_ses-02_part-02_label-phase2,2020.1.2,MacIntel,60,right,1.02,2,0.007,0,91,91,4,1,stimuli/objects/skipole.jpg,right,new,5,,,,,,,,
,,,,,,,,8,2021-01-15_16h40.38.081,premce3DEU_ses-02_part-02_label-phase2,2020.1.2,MacIntel,60,right,0.894,2,0.015,0,92,92,20,1,stimuli/objects/accordion01.jpg,right,new,21,,,,,,,,
,,,,,,,,8,2021-01-15_16h40.38.081,premce3DEU_ses-02_part-02_label-phase2,2020.1.2,MacIntel,60,left,1.127,4,0.112,0,93,93,40,1,stimuli/objects/cremebrulee.jpg,left,old,41,,,,,,,,
,,,,,,,,8,2021-01-15_16h40.38.081,premce3DEU_ses-02_part-02_label-phase2,2020.1.2,MacIntel,60,right,0.766,2,0.263,0,94,94,13,1,stimuli/objects/tower.jpg,right,new,14,,,,,,,,
,,,,,,,,8,2021-01-15_16h40.38.081,premce3DEU_ses-02_part-02_label-phase2,2020.1.2,MacIntel,60,right,0.794,2,0.131,0,95,95,33,1,stimuli/objects/caribou02.jpg,right,new,34,,,,,,,,
,,,,,,,,8,2021-01-15_16h40.38.081,premce3DEU_ses-02_part-02_label-phase2,2020.1.2,MacIntel,60,left,0.859,4,0.08,0,96,96,36,1,stimuli/objects/christmaslights.jpg,left,old,37,,,,,,,,
,,,,,,,,8,2021-01-15_16h40.38.081,premce3DEU_ses-02_part-02_label-phase2,2020.1.2,MacIntel,60,right,0.894,2,0.041,0,97,97,93,1,stimuli/objects/discoball.jpg,right,new,94,,,,,,,,
,,,,,,,,8,2021-01-15_16h40.38.081,premce3DEU_ses-02_part-02_label-phase2,2020.1.2,MacIntel,60,left,0.857,4,0.856,0,98,98,130,1,stimuli/objects/tulip02.jpg,left,old,131,,,,,,,,
,,,,,,,,8,2021-01-15_16h40.38.081,premce3DEU_ses-02_part-02_label-phase2,2020.1.2,MacIntel,60,left,1.196,2,0.654,0,99,99,10,1,stimuli/objects/tablesaw.jpg,right,new,11,,,,,,,,
,,,,,,,,8,2021-01-15_16h40.38.081,premce3DEU_ses-02_part-02_label-phase2,2020.1.2,MacIntel,60,right,0.768,1,0.113,0,100,100,46,1,stimuli/objects/entrancegate.jpg,right,new,47,,,,,,,,
,,,,,,,,8,2021-01-15_16h40.38.081,premce3DEU_ses-02_part-02_label-phase2,2020.1.2,MacIntel,60,right,0.724,1,0.568,0,101,101,26,1,stimuli/objects/sledgehammer.jpg,right,new,27,,,,,,,,
,,,,,,,,8,2021-01-15_16h40.38.081,premce3DEU_ses-02_part-02_label-phase2,2020.1.2,MacIntel,60,right,0.972,1,0.007,0,102,102,102,1,stimuli/objects/forklift.jpg,left,old,103,,,,,,,,
,,,,,,,,8,2021-01-15_16h40.38.081,premce3DEU_ses-02_part-02_label-phase2,2020.1.2,MacIntel,60,right,0.856,2,0.342,0,103,103,113,1,stimuli/objects/shoppingcart.jpg,right,new,114,,,,,,,,
,,,,,,,,8,2021-01-15_16h40.38.081,premce3DEU_ses-02_part-02_label-phase2,2020.1.2,MacIntel,60,left,1.331,3,0.305,0,104,104,91,1,stimuli/objects/eyepatch.jpg,left,old,92,,,,,,,,
,,,,,,,,8,2021-01-15_16h40.38.081,premce3DEU_ses-02_part-02_label-phase2,2020.1.2,MacIntel,60,right,0.771,2,0.067,0,105,105,55,1,stimuli/objects/drumstick.jpg,right,new,56,,,,,,,,
,,,,,,,,8,2021-01-15_16h40.38.081,premce3DEU_ses-02_part-02_label-phase2,2020.1.2,MacIntel,60,right,1.065,2,0.153,0,106,106,98,1,stimuli/objects/handbrush02.jpg,left,old,99,,,,,,,,
,,,,,,,,8,2021-01-15_16h40.38.081,premce3DEU_ses-02_part-02_label-phase2,2020.1.2,MacIntel,60,right,0.96,2,0.251,0,107,107,23,1,stimuli/objects/lollipop04.jpg,right,new,24,,,,,,,,
,,,,,,,,8,2021-01-15_16h40.38.081,premce3DEU_ses-02_part-02_label-phase2,2020.1.2,MacIntel,60,right,0.792,2,0.224,0,108,108,148,1,stimuli/objects/peacock.jpg,right,new,149,,,,,,,,
,,,,,,,,8,2021-01-15_16h40.38.081,premce3DEU_ses-02_part-02_label-phase2,2020.1.2,MacIntel,60,left,1.331,2,0.919,0,109,109,122,1,stimuli/objects/soccerball.jpg,left,old,123,,,,,,,,
,,,,,,,,8,2021-01-15_16h40.38.081,premce3DEU_ses-02_part-02_label-phase2,2020.1.2,MacIntel,60,right,1.046,2,0.344,0,110,110,123,1,stimuli/objects/lintroller.jpg,left,old,124,,,,,,,,
,,,,,,,,8,2021-01-15_16h40.38.081,premce3DEU_ses-02_part-02_label-phase2,2020.1.2,MacIntel,60,right,0.897,2,0.167,0,111,111,52,1,stimuli/objects/turkey.jpg,right,new,53,,,,,,,,
,,,,,,,,8,2021-01-15_16h40.38.081,premce3DEU_ses-02_part-02_label-phase2,2020.1.2,MacIntel,60,right,0.658,2,0.135,0,112,112,96,1,stimuli/objects/awning.jpg,right,new,97,,,,,,,,
,,,,,,,,8,2021-01-15_16h40.38.081,premce3DEU_ses-02_part-02_label-phase2,2020.1.2,MacIntel,60,left,1.237,4,0.248,0,113,113,108,1,stimuli/objects/communitymailbox.jpg,left,old,109,,,,,,,,
,,,,,,,,8,2021-01-15_16h40.38.081,premce3DEU_ses-02_part-02_label-phase2,2020.1.2,MacIntel,60,left,1.416,2,0.175,0,114,114,17,1,stimuli/objects/parkingmeter.jpg,right,new,18,,,,,,,,
,,,,,,,,8,2021-01-15_16h40.38.081,premce3DEU_ses-02_part-02_label-phase2,2020.1.2,MacIntel,60,right,0.866,2,0.155,0,115,115,134,1,stimuli/objects/nunchuk.jpg,right,new,135,,,,,,,,
,,,,,,,,8,2021-01-15_16h40.38.081,premce3DEU_ses-02_part-02_label-phase2,2020.1.2,MacIntel,60,right,0.929,1,0.247,0,116,116,100,1,stimuli/objects/macaroni01.jpg,right,new,101,,,,,,,,
,,,,,,,,8,2021-01-15_16h40.38.081,premce3DEU_ses-02_part-02_label-phase2,2020.1.2,MacIntel,60,right,0.801,2,0.293,0,117,117,30,1,stimuli/objects/fortunecookie.jpg,right,new,31,,,,,,,,
,,,,,,,,8,2021-01-15_16h40.38.081,premce3DEU_ses-02_part-02_label-phase2,2020.1.2,MacIntel,60,left,0.87,4,0.296,0,118,118,84,1,stimuli/objects/winniethepooh.jpg,left,old,85,,,,,,,,
,,,,,,,,8,2021-01-15_16h40.38.081,premce3DEU_ses-02_part-02_label-phase2,2020.1.2,MacIntel,60,right,0.827,1,0.221,0,119,119,117,1,stimuli/objects/bull.jpg,right,new,118,,,,,,,,
,,,,,,,,8,2021-01-15_16h40.38.081,premce3DEU_ses-02_part-02_label-phase2,2020.1.2,MacIntel,60,right,1.118,2,0.132,0,120,120,21,1,stimuli/objects/tire.jpg,right,new,22,,,,,,,,
,,,,,,,,8,2021-01-15_16h40.38.081,premce3DEU_ses-02_part-02_label-phase2,2020.1.2,MacIntel,60,right,0.849,4,0.217,0,121,121,71,1,stimuli/objects/bed.jpg,right,new,72,,,,,,,,
,,,,,,,,8,2021-01-15_16h40.38.081,premce3DEU_ses-02_part-02_label-phase2,2020.1.2,MacIntel,60,right,2.407,2,0.289,0,122,122,97,1,stimuli/objects/dreamcatcher.jpg,left,old,98,,,,,,,,
,,,,,,,,8,2021-01-15_16h40.38.081,premce3DEU_ses-02_part-02_label-phase2,2020.1.2,MacIntel,60,right,0.767,2,1.684,0,123,123,85,1,stimuli/objects/bridge.jpg,right,new,86,,,,,,,,
,,,,,,,,8,2021-01-15_16h40.38.081,premce3DEU_ses-02_part-02_label-phase2,2020.1.2,MacIntel,60,right,0.738,1,0.377,0,124,124,109,1,stimuli/objects/webcam.jpg,right,new,110,,,,,,,,
,,,,,,,,8,2021-01-15_16h40.38.081,premce3DEU_ses-02_part-02_label-phase2,2020.1.2,MacIntel,60,right,0.657,1,0.185,0,125,125,154,1,stimuli/objects/curtain.jpg,right,new,155,,,,,,,,
,,,,,,,,8,2021-01-15_16h40.38.081,premce3DEU_ses-02_part-02_label-phase2,2020.1.2,MacIntel,60,right,2.018,2,1.017,0,126,126,89,1,stimuli/objects/bowlingball.jpg,right,new,90,,,,,,,,
,,,,,,,,8,2021-01-15_16h40.38.081,premce3DEU_ses-02_part-02_label-phase2,2020.1.2,MacIntel,60,right,0.822,2,0.377,0,127,127,87,1,stimuli/objects/filingcabinet.jpg,left,old,88,,,,,,,,
,,,,,,,,8,2021-01-15_16h40.38.081,premce3DEU_ses-02_part-02_label-phase2,2020.1.2,MacIntel,60,right,0.914,2,0.3,0,128,128,70,1,stimuli/objects/balcony02.jpg,left,old,71,,,,,,,,
,,,,,,,,8,2021-01-15_16h40.38.081,premce3DEU_ses-02_part-02_label-phase2,2020.1.2,MacIntel,60,right,0.602,3,1.484,0,129,129,51,1,stimuli/objects/road02.jpg,right,new,52,,,,,,,,
,,,,,,,,8,2021-01-15_16h40.38.081,premce3DEU_ses-02_part-02_label-phase2,2020.1.2,MacIntel,60,left,1.391,2,0.599,0,130,130,60,1,stimuli/objects/banjo.jpg,right,new,61,,,,,,,,
,,,,,,,,8,2021-01-15_16h40.38.081,premce3DEU_ses-02_part-02_label-phase2,2020.1.2,MacIntel,60,left,1.085,4,0.275,0,131,131,156,1,stimuli/objects/skateboard.jpg,left,old,157,,,,,,,,
,,,,,,,,8,2021-01-15_16h40.38.081,premce3DEU_ses-02_part-02_label-phase2,2020.1.2,MacIntel,60,left,1.176,3,0.236,0,132,132,149,1,stimuli/objects/dolly01.jpg,right,new,150,,,,,,,,
,,,,,,,,8,2021-01-15_16h40.38.081,premce3DEU_ses-02_part-02_label-phase2,2020.1.2,MacIntel,60,left,0.936,4,0.127,0,133,133,65,1,stimuli/objects/weddingcake.jpg,left,old,66,,,,,,,,
,,,,,,,,8,2021-01-15_16h40.38.081,premce3DEU_ses-02_part-02_label-phase2,2020.1.2,MacIntel,60,right,0.943,2,0.016,0,134,134,57,1,stimuli/objects/cupcake.jpg,right,new,58,,,,,,,,
,,,,,,,,8,2021-01-15_16h40.38.081,premce3DEU_ses-02_part-02_label-phase2,2020.1.2,MacIntel,60,left,0.875,4,0.001,0,135,135,82,1,stimuli/objects/crown.jpg,left,old,83,,,,,,,,
,,,,,,,,8,2021-01-15_16h40.38.081,premce3DEU_ses-02_part-02_label-phase2,2020.1.2,MacIntel,60,left,1.078,4,0.064,0,136,136,34,1,stimuli/objects/aquarium.jpg,left,old,35,,,,,,,,
,,,,,,,,8,2021-01-15_16h40.38.081,premce3DEU_ses-02_part-02_label-phase2,2020.1.2,MacIntel,60,left,1.219,3,0.065,0,137,137,152,1,stimuli/objects/urinal.jpg,left,old,153,,,,,,,,
,,,,,,,,8,2021-01-15_16h40.38.081,premce3DEU_ses-02_part-02_label-phase2,2020.1.2,MacIntel,60,right,0.864,2,0.115,0,138,138,111,1,stimuli/objects/platypus.jpg,right,new,112,,,,,,,,
,,,,,,,,8,2021-01-15_16h40.38.081,premce3DEU_ses-02_part-02_label-phase2,2020.1.2,MacIntel,60,left,0.945,4,0.078,0,139,139,103,1,stimuli/objects/salmon.jpg,left,old,104,,,,,,,,
,,,,,,,,8,2021-01-15_16h40.38.081,premce3DEU_ses-02_part-02_label-phase2,2020.1.2,MacIntel,60,left,1.075,3,0.077,0,140,140,61,1,stimuli/objects/jokercard.jpg,left,old,62,,,,,,,,
,,,,,,,,8,2021-01-15_16h40.38.081,premce3DEU_ses-02_part-02_label-phase2,2020.1.2,MacIntel,60,right,1.169,1,0.044,0,141,141,94,1,stimuli/objects/dandelion.jpg,right,new,95,,,,,,,,
,,,,,,,,8,2021-01-15_16h40.38.081,premce3DEU_ses-02_part-02_label-phase2,2020.1.2,MacIntel,60,right,1.104,1,0.114,0,142,142,63,1,stimuli/objects/toasteroven.jpg,right,new,64,,,,,,,,
,,,,,,,,8,2021-01-15_16h40.38.081,premce3DEU_ses-02_part-02_label-phase2,2020.1.2,MacIntel,60,right,0.912,2,0.006,0,143,143,22,1,stimuli/objects/paperairplane.jpg,right,new,23,,,,,,,,
,,,,,,,,8,2021-01-15_16h40.38.081,premce3DEU_ses-02_part-02_label-phase2,2020.1.2,MacIntel,60,left,0.97,4,0.213,0,144,144,64,1,stimuli/objects/dalmatian.jpg,left,old,65,,,,,,,,
,,,,,,,,8,2021-01-15_16h40.38.081,premce3DEU_ses-02_part-02_label-phase2,2020.1.2,MacIntel,60,right,0.996,1,0.049,0,145,145,139,1,stimuli/objects/safe.jpg,right,new,140,,,,,,,,
,,,,,,,,8,2021-01-15_16h40.38.081,premce3DEU_ses-02_part-02_label-phase2,2020.1.2,MacIntel,60,right,0.795,1,0.025,0,146,146,86,1,stimuli/objects/chimney.jpg,right,new,87,,,,,,,,
,,,,,,,,8,2021-01-15_16h40.38.081,premce3DEU_ses-02_part-02_label-phase2,2020.1.2,MacIntel,60,right,0.735,1,0.175,0,147,147,73,1,stimuli/objects/guitarcase.jpg,right,new,74,,,,,,,,
,,,,,,,,8,2021-01-15_16h40.38.081,premce3DEU_ses-02_part-02_label-phase2,2020.1.2,MacIntel,60,left,1.495,4,0.293,0,148,148,7,1,stimuli/objects/redonion.jpg,left,old,8,,,,,,,,
,,,,,,,,8,2021-01-15_16h40.38.081,premce3DEU_ses-02_part-02_label-phase2,2020.1.2,MacIntel,60,left,0.917,4,0.152,0,149,149,48,1,stimuli/objects/bowlingpin.jpg,left,old,49,,,,,,,,
,,,,,,,,8,2021-01-15_16h40.38.081,premce3DEU_ses-02_part-02_label-phase2,2020.1.2,MacIntel,60,left,1.18,2,0.032,0,150,150,79,1,stimuli/objects/callbell.jpg,left,old,80,,,,,,,,
,,,,,,,,8,2021-01-15_16h40.38.081,premce3DEU_ses-02_part-02_label-phase2,2020.1.2,MacIntel,60,left,1.638,2,0.26,0,151,151,1,1,stimuli/objects/pooltable.jpg,right,new,2,,,,,,,,
,,,,,,,,8,2021-01-15_16h40.38.081,premce3DEU_ses-02_part-02_label-phase2,2020.1.2,MacIntel,60,left,1.017,3,0.134,0,152,152,6,1,stimuli/objects/pumpkin.jpg,left,old,7,,,,,,,,
,,,,,,,,8,2021-01-15_16h40.38.081,premce3DEU_ses-02_part-02_label-phase2,2020.1.2,MacIntel,60,left,1.194,2,1.378,0,153,153,32,1,stimuli/objects/moth.jpg,right,new,33,,,,,,,,
,,,,,,,,8,2021-01-15_16h40.38.081,premce3DEU_ses-02_part-02_label-phase2,2020.1.2,MacIntel,60,right,1.644,2,0.259,0,154,154,9,1,stimuli/objects/rose.jpg,right,new,10,,,,,,,,
,,,,,,,,8,2021-01-15_16h40.38.081,premce3DEU_ses-02_part-02_label-phase2,2020.1.2,MacIntel,60,left,1.032,3,0.153,0,155,155,83,1,stimuli/objects/flugglehorn.jpg,right,new,84,,,,,,,,
,,,,,,,,8,2021-01-15_16h40.38.081,premce3DEU_ses-02_part-02_label-phase2,2020.1.2,MacIntel,60,right,0.865,2,0.085,0,156,156,121,1,stimuli/objects/riverotter.jpg,right,new,122,,,,,,,,
,,,,,,,,8,2021-01-15_16h40.38.081,premce3DEU_ses-02_part-02_label-phase2,2020.1.2,MacIntel,60,left,0.973,4,0.05,0,157,157,101,1,stimuli/objects/apron.jpg,left,old,102,,,,,,,,
,,,,,,,,8,2021-01-15_16h40.38.081,premce3DEU_ses-02_part-02_label-phase2,2020.1.2,MacIntel,60,right,0.802,1,0.129,0,158,158,95,1,stimuli/objects/scalpel.jpg,left,old,96,,,,,,,,
,,,,,,,,8,2021-01-15_16h40.38.081,premce3DEU_ses-02_part-02_label-phase2,2020.1.2,MacIntel,60,right,1.583,1,0.023,0,159,159,158,1,stimuli/objects/watercooler.jpg,right,new,159,,,,,,,,
,,,,,,,,8,2021-01-15_16h40.38.081,premce3DEU_ses-02_part-02_label-phase2,2020.1.2,MacIntel,60,,,,,,,,,,,,,,space,4.722,0,1,1,0,1,ImagesforRecog1.csv
