Instr_resp_2.keys,Instr_resp_2.rt,warmup_resp.keys,warmup_resp.corr,warmup_resp.rt,myownaccuracy,respcorrs,myownaccuracyCORR,trials.thisRepN,trials.thisTrialN,trials.thisN,trials.thisIndex,trials.ran,first_butterfly,second_butterfly,Cue,left_flower,top_flower,bottom_flower,right_flower,corr_ans,obj_file,trial_cond,switch_cond,cuedButter,trial_type,participant,date,expName,psychopyVersion,OS,frameRate,Instr_resp.keys,Instr_resp.rt,taskGoresp.keys,taskGoresp.rt,task_resp_3.keys,task_resp_3.corr,task_resp_3.rt,task_loop.thisRepN,task_loop.thisTrialN,task_loop.thisN,task_loop.thisIndex,task_loop.ran,list_loop.thisRepN,list_loop.thisTrialN,list_loop.thisN,list_loop.thisIndex,list_loop.ran,list,key_resp.keys,key_resp.rt
space,13.65,left,0,1.487,0,[],[],0,0,0,13,1,stimuli/grey_butterfly.png,stimuli/white_butterfly.png,2,stimuli/blue_flower.png,stimuli/red_flower.png,stimuli/yellow_flower.png,stimuli/green_flower.png,up,stimuli/objects/payphone.jpg,0,99,stimuli/white_butterfly.png,1,8,2021-01-15_16h18.19.271,premce3DEU_ses-02_part-01_label-phase1,2020.1.2,MacIntel,60,,,,,,,,,,,,,,,,,,,,
,,up,0,0.834,0,[],0,0,1,1,0,1,stimuli/grey_butterfly.png,stimuli/white_butterfly.png,2,stimuli/green_flower.png,stimuli/red_flower.png,stimuli/yellow_flower.png,stimuli/blue_flower.png,right,stimuli/objects/tennisracket.jpg,1,99,stimuli/white_butterfly.png,0,8,2021-01-15_16h18.19.271,premce3DEU_ses-02_part-01_label-phase1,2020.1.2,MacIntel,60,,,,,,,,,,,,,,,,,,,,
,,right,1,1.049,1,[0],1,0,2,2,4,1,stimuli/white_butterfly.png,stimuli/grey_butterfly.png,1,stimuli/green_flower.png,stimuli/red_flower.png,stimuli/yellow_flower.png,stimuli/blue_flower.png,right,stimuli/objects/tire.jpg,1,99,stimuli/white_butterfly.png,0,8,2021-01-15_16h18.19.271,premce3DEU_ses-02_part-01_label-phase1,2020.1.2,MacIntel,60,,,,,,,,,,,,,,,,,,,,
,,up,1,0.766,1,"[0,1]",1,0,3,3,14,1,stimuli/grey_butterfly.png,stimuli/white_butterfly.png,1,stimuli/blue_flower.png,stimuli/red_flower.png,stimuli/yellow_flower.png,stimuli/green_flower.png,up,stimuli/objects/shed02.jpg,1,99,stimuli/grey_butterfly.png,1,8,2021-01-15_16h18.19.271,premce3DEU_ses-02_part-01_label-phase1,2020.1.2,MacIntel,60,,,,,,,,,,,,,,,,,,,,
,,left,1,0.518,1,"[0,1,1]",1,0,4,4,8,1,stimuli/white_butterfly.png,stimuli/grey_butterfly.png,2,stimuli/red_flower.png,stimuli/blue_flower.png,stimuli/green_flower.png,stimuli/yellow_flower.png,left,stimuli/objects/shelf.jpg,1,99,stimuli/grey_butterfly.png,0,8,2021-01-15_16h18.19.271,premce3DEU_ses-02_part-01_label-phase1,2020.1.2,MacIntel,60,,,,,,,,,,,,,,,,,,,,
,,down,0,1.147,0,"[0,1,1,1]",1,0,5,5,10,1,stimuli/white_butterfly.png,stimuli/grey_butterfly.png,1,stimuli/green_flower.png,stimuli/yellow_flower.png,stimuli/blue_flower.png,stimuli/red_flower.png,left,stimuli/objects/anchor.jpg,0,99,stimuli/white_butterfly.png,0,8,2021-01-15_16h18.19.271,premce3DEU_ses-02_part-01_label-phase1,2020.1.2,MacIntel,60,,,,,,,,,,,,,,,,,,,,
,,right,1,1.241,1,"[0,1,1,1]",1,0,6,6,16,1,stimuli/grey_butterfly.png,stimuli/white_butterfly.png,2,stimuli/red_flower.png,stimuli/yellow_flower.png,stimuli/green_flower.png,stimuli/blue_flower.png,right,stimuli/objects/foosballtable.jpg,1,99,stimuli/white_butterfly.png,1,8,2021-01-15_16h18.19.271,premce3DEU_ses-02_part-01_label-phase1,2020.1.2,MacIntel,60,,,,,,,,,,,,,,,,,,,,
,,left,1,0.47,1,"[0,1,1,1,1]",1,0,7,7,15,1,stimuli/grey_butterfly.png,stimuli/white_butterfly.png,1,stimuli/red_flower.png,stimuli/yellow_flower.png,stimuli/blue_flower.png,stimuli/green_flower.png,left,stimuli/objects/wheat.jpg,1,99,stimuli/grey_butterfly.png,1,8,2021-01-15_16h18.19.271,premce3DEU_ses-02_part-01_label-phase1,2020.1.2,MacIntel,60,,,,,,,,,,,,,,,,,,,,
,,up,1,1.118,1,"[0,1,1,1,1,1]",1,0,8,8,2,1,stimuli/white_butterfly.png,stimuli/grey_butterfly.png,2,stimuli/blue_flower.png,stimuli/red_flower.png,stimuli/yellow_flower.png,stimuli/green_flower.png,up,stimuli/objects/corn02.jpg,1,99,stimuli/grey_butterfly.png,0,8,2021-01-15_16h18.19.271,premce3DEU_ses-02_part-01_label-phase1,2020.1.2,MacIntel,60,,,,,,,,,,,,,,,,,,,,
,,right,1,0.555,1,"[0,1,1,1,1,1,1]",1,0,9,9,20,1,stimuli/white_butterfly.png,stimuli/grey_butterfly.png,2,stimuli/green_flower.png,stimuli/blue_flower.png,stimuli/yellow_flower.png,stimuli/red_flower.png,right,stimuli/objects/toucan.jpg,1,99,stimuli/grey_butterfly.png,1,8,2021-01-15_16h18.19.271,premce3DEU_ses-02_part-01_label-phase1,2020.1.2,MacIntel,60,,,,,,,,,,,,,,,,,,,,
,,left,1,0.716,1,"[0,1,1,1,1,1,1,1]",1,0,10,10,9,1,stimuli/white_butterfly.png,stimuli/grey_butterfly.png,1,stimuli/blue_flower.png,stimuli/red_flower.png,stimuli/yellow_flower.png,stimuli/green_flower.png,left,stimuli/objects/skunk.jpg,1,99,stimuli/white_butterfly.png,0,8,2021-01-15_16h18.19.271,premce3DEU_ses-02_part-01_label-phase1,2020.1.2,MacIntel,60,,,,,,,,,,,,,,,,,,,,
,,down,0,0.728,0,"[0,1,1,1,1,1,1,1,1]",1,0,11,11,3,1,stimuli/white_butterfly.png,stimuli/grey_butterfly.png,2,stimuli/green_flower.png,stimuli/blue_flower.png,stimuli/red_flower.png,stimuli/yellow_flower.png,left,stimuli/objects/cigar.jpg,0,99,stimuli/grey_butterfly.png,0,8,2021-01-15_16h18.19.271,premce3DEU_ses-02_part-01_label-phase1,2020.1.2,MacIntel,60,,,,,,,,,,,,,,,,,,,,
,,up,1,1.12,1,"[0,1,1,1,1,1,1,1,1]",1,0,12,12,1,1,stimuli/white_butterfly.png,stimuli/grey_butterfly.png,2,stimuli/yellow_flower.png,stimuli/red_flower.png,stimuli/blue_flower.png,stimuli/green_flower.png,up,stimuli/objects/marble.jpg,1,99,stimuli/grey_butterfly.png,0,8,2021-01-15_16h18.19.271,premce3DEU_ses-02_part-01_label-phase1,2020.1.2,MacIntel,60,,,,,,,,,,,,,,,,,,,,
,,right,0,0.718,0,"[0,1,1,1,1,1,1,1,1,1]",1,0,13,13,11,1,stimuli/white_butterfly.png,stimuli/grey_butterfly.png,2,stimuli/blue_flower.png,stimuli/green_flower.png,stimuli/yellow_flower.png,stimuli/red_flower.png,left,stimuli/objects/bookshelf.jpg,0,99,stimuli/grey_butterfly.png,1,8,2021-01-15_16h18.19.271,premce3DEU_ses-02_part-01_label-phase1,2020.1.2,MacIntel,60,,,,,,,,,,,,,,,,,,,,
,,down,1,0.835,1,"[0,1,1,1,1,1,1,1,1,1]",1,0,14,14,7,1,stimuli/grey_butterfly.png,stimuli/white_butterfly.png,2,stimuli/red_flower.png,stimuli/green_flower.png,stimuli/blue_flower.png,stimuli/yellow_flower.png,down,stimuli/objects/firehydrant.jpg,1,99,stimuli/white_butterfly.png,0,8,2021-01-15_16h18.19.271,premce3DEU_ses-02_part-01_label-phase1,2020.1.2,MacIntel,60,,,,,,,,,,,,,,,,,,,,
,,right,1,1.006,1,"[0,1,1,1,1,1,1,1,1,1,1]",1,0,15,15,6,1,stimuli/grey_butterfly.png,stimuli/white_butterfly.png,1,stimuli/green_flower.png,stimuli/yellow_flower.png,stimuli/blue_flower.png,stimuli/red_flower.png,right,stimuli/objects/flipflop01b.jpg,1,99,stimuli/grey_butterfly.png,0,8,2021-01-15_16h18.19.271,premce3DEU_ses-02_part-01_label-phase1,2020.1.2,MacIntel,60,,,,,,,,,,,,,,,,,,,,
,,left,0,0.693,0,"[0,1,1,1,1,1,1,1,1,1,1,1]",1,0,16,16,18,1,stimuli/grey_butterfly.png,stimuli/white_butterfly.png,2,stimuli/blue_flower.png,stimuli/yellow_flower.png,stimuli/green_flower.png,stimuli/red_flower.png,up,stimuli/objects/armadillo.jpg,0,99,stimuli/white_butterfly.png,1,8,2021-01-15_16h18.19.271,premce3DEU_ses-02_part-01_label-phase1,2020.1.2,MacIntel,60,,,,,,,,,,,,,,,,,,,,
,,left,0,1.711,0,"[0,1,1,1,1,1,1,1,1,1,1,1]",1,0,17,17,17,1,stimuli/grey_butterfly.png,stimuli/white_butterfly.png,1,stimuli/red_flower.png,stimuli/green_flower.png,stimuli/yellow_flower.png,stimuli/blue_flower.png,down,stimuli/objects/butterfly4.jpg,0,99,stimuli/grey_butterfly.png,1,8,2021-01-15_16h18.19.271,premce3DEU_ses-02_part-01_label-phase1,2020.1.2,MacIntel,60,,,,,,,,,,,,,,,,,,,,
,,down,1,1.07,1,"[0,1,1,1,1,1,1,1,1,1,1,1]",1,0,18,18,5,1,stimuli/white_butterfly.png,stimuli/grey_butterfly.png,1,stimuli/green_flower.png,stimuli/red_flower.png,stimuli/blue_flower.png,stimuli/yellow_flower.png,down,stimuli/objects/birdfeeder.jpg,1,99,stimuli/white_butterfly.png,0,8,2021-01-15_16h18.19.271,premce3DEU_ses-02_part-01_label-phase1,2020.1.2,MacIntel,60,,,,,,,,,,,,,,,,,,,,
,,down,1,0.717,1,"[0,1,1,1,1,1,1,1,1,1,1,1,1]",1,0,19,19,12,1,stimuli/white_butterfly.png,stimuli/grey_butterfly.png,1,stimuli/yellow_flower.png,stimuli/red_flower.png,stimuli/blue_flower.png,stimuli/green_flower.png,down,stimuli/objects/toolbox02.jpg,1,99,stimuli/white_butterfly.png,1,8,2021-01-15_16h18.19.271,premce3DEU_ses-02_part-01_label-phase1,2020.1.2,MacIntel,60,,,,,,,,,,,,,,,,,,,,
,,up,1,1.771,1,"[0,1,1,1,1,1,1,1,1,1,1,1,1,1]",1,0,20,20,19,1,stimuli/grey_butterfly.png,stimuli/white_butterfly.png,2,stimuli/yellow_flower.png,stimuli/blue_flower.png,stimuli/red_flower.png,stimuli/green_flower.png,up,stimuli/objects/motorcycle.jpg,1,99,stimuli/white_butterfly.png,1,8,2021-01-15_16h18.19.271,premce3DEU_ses-02_part-01_label-phase1,2020.1.2,MacIntel,60,,,,,,,,,,,,,,,,,,,,
,,,,,1,"[0,1,1,1,1,1,1,1,1,1,1,1,1,1,1]",1,,,,,,stimuli/white_butterfly.png,stimuli/grey_butterfly.png,1,stimuli/blue_flower.png,stimuli/red_flower.png,stimuli/green_flower.png,stimuli/yellow_flower.png,left,stimuli/objects/cashregister01.jpg,1,2,stimuli/white_butterfly.png,0,8,2021-01-15_16h18.19.271,premce3DEU_ses-02_part-01_label-phase1,2020.1.2,MacIntel,60,space,13.06,space,1.776,left,1,0.578,0,0,0,0,1,,,,,,,,
,,,,,0,"[0,1,1,1,1,1,1,1,1,1,1,1,1,1,1,1]",1,,,,,,stimuli/grey_butterfly.png,stimuli/white_butterfly.png,2,stimuli/yellow_flower.png,stimuli/green_flower.png,stimuli/blue_flower.png,stimuli/red_flower.png,up,stimuli/objects/birdfeeder.jpg,0,2,stimuli/white_butterfly.png,0,8,2021-01-15_16h18.19.271,premce3DEU_ses-02_part-01_label-phase1,2020.1.2,MacIntel,60,,,,,down,0,0.623,0,1,1,1,1,,,,,,,,
,,,,,0,"[0,1,1,1,1,1,1,1,1,1,1,1,1,1,1,1]",1,,,,,,stimuli/white_butterfly.png,stimuli/grey_butterfly.png,1,stimuli/green_flower.png,stimuli/blue_flower.png,stimuli/red_flower.png,stimuli/yellow_flower.png,down,stimuli/objects/microwave.jpg,0,2,stimuli/white_butterfly.png,0,8,2021-01-15_16h18.19.271,premce3DEU_ses-02_part-01_label-phase1,2020.1.2,MacIntel,60,,,,,up,0,1.536,0,2,2,2,1,,,,,,,,
,,,,,0,"[0,1,1,1,1,1,1,1,1,1,1,1,1,1,1,1]",1,,,,,,stimuli/grey_butterfly.png,stimuli/white_butterfly.png,1,stimuli/yellow_flower.png,stimuli/green_flower.png,stimuli/red_flower.png,stimuli/blue_flower.png,left,stimuli/objects/balcony02.jpg,0,2,stimuli/grey_butterfly.png,0,8,2021-01-15_16h18.19.271,premce3DEU_ses-02_part-01_label-phase1,2020.1.2,MacIntel,60,,,,,down,0,0.776,0,3,3,3,1,,,,,,,,
,,,,,1,"[0,1,1,1,1,1,1,1,1,1,1,1,1,1,1,1]",1,,,,,,stimuli/grey_butterfly.png,stimuli/white_butterfly.png,2,stimuli/blue_flower.png,stimuli/red_flower.png,stimuli/yellow_flower.png,stimuli/green_flower.png,left,stimuli/objects/file.jpg,1,2,stimuli/white_butterfly.png,0,8,2021-01-15_16h18.19.271,premce3DEU_ses-02_part-01_label-phase1,2020.1.2,MacIntel,60,,,,,left,1,1.398,0,4,4,4,1,,,,,,,,
,,,,,1,"[0,1,1,1,1,1,1,1,1,1,1,1,1,1,1,1,1]",1,,,,,,stimuli/white_butterfly.png,stimuli/grey_butterfly.png,2,stimuli/yellow_flower.png,stimuli/green_flower.png,stimuli/red_flower.png,stimuli/blue_flower.png,down,stimuli/objects/scalpel.jpg,1,2,stimuli/grey_butterfly.png,0,8,2021-01-15_16h18.19.271,premce3DEU_ses-02_part-01_label-phase1,2020.1.2,MacIntel,60,,,,,down,1,1.474,0,5,5,5,1,,,,,,,,
,,,,,1,"[0,1,1,1,1,1,1,1,1,1,1,1,1,1,1,1,1,1]",1,,,,,,stimuli/white_butterfly.png,stimuli/grey_butterfly.png,1,stimuli/green_flower.png,stimuli/yellow_flower.png,stimuli/red_flower.png,stimuli/blue_flower.png,right,stimuli/objects/car.jpg,1,2,stimuli/white_butterfly.png,0,8,2021-01-15_16h18.19.271,premce3DEU_ses-02_part-01_label-phase1,2020.1.2,MacIntel,60,,,,,right,1,0.547,0,6,6,6,1,,,,,,,,
,,,,,1,"[0,1,1,1,1,1,1,1,1,1,1,1,1,1,1,1,1,1,1]",1,,,,,,stimuli/white_butterfly.png,stimuli/grey_butterfly.png,1,stimuli/blue_flower.png,stimuli/yellow_flower.png,stimuli/green_flower.png,stimuli/red_flower.png,left,stimuli/objects/forklift.jpg,1,2,stimuli/white_butterfly.png,0,8,2021-01-15_16h18.19.271,premce3DEU_ses-02_part-01_label-phase1,2020.1.2,MacIntel,60,,,,,left,1,0.934,0,7,7,7,1,,,,,,,,
,,,,,1,"[0,1,1,1,1,1,1,1,1,1,1,1,1,1,1,1,1,1,1,1]",1,,,,,,stimuli/white_butterfly.png,stimuli/grey_butterfly.png,1,stimuli/red_flower.png,stimuli/yellow_flower.png,stimuli/green_flower.png,stimuli/blue_flower.png,right,stimuli/objects/snowglobe.jpg,1,2,stimuli/white_butterfly.png,0,8,2021-01-15_16h18.19.271,premce3DEU_ses-02_part-01_label-phase1,2020.1.2,MacIntel,60,,,,,right,1,1.027,0,8,8,8,1,,,,,,,,
,,,,,1,"[0,1,1,1,1,1,1,1,1,1,1,1,1,1,1,1,1,1,1,1,1]",1,,,,,,stimuli/grey_butterfly.png,stimuli/white_butterfly.png,1,stimuli/green_flower.png,stimuli/red_flower.png,stimuli/blue_flower.png,stimuli/yellow_flower.png,up,stimuli/objects/rollerblade.jpg,1,2,stimuli/grey_butterfly.png,0,8,2021-01-15_16h18.19.271,premce3DEU_ses-02_part-01_label-phase1,2020.1.2,MacIntel,60,,,,,up,1,0.833,0,9,9,9,1,,,,,,,,
,,,,,1,"[0,1,1,1,1,1,1,1,1,1,1,1,1,1,1,1,1,1,1,1,1,1]",1,,,,,,stimuli/white_butterfly.png,stimuli/grey_butterfly.png,2,stimuli/green_flower.png,stimuli/blue_flower.png,stimuli/yellow_flower.png,stimuli/red_flower.png,right,stimuli/objects/treestump.jpg,1,2,stimuli/grey_butterfly.png,0,8,2021-01-15_16h18.19.271,premce3DEU_ses-02_part-01_label-phase1,2020.1.2,MacIntel,60,,,,,right,1,0.98,0,10,10,10,1,,,,,,,,
,,,,,1,"[0,1,1,1,1,1,1,1,1,1,1,1,1,1,1,1,1,1,1,1,1,1,1]",1,,,,,,stimuli/grey_butterfly.png,stimuli/white_butterfly.png,2,stimuli/yellow_flower.png,stimuli/blue_flower.png,stimuli/red_flower.png,stimuli/green_flower.png,up,stimuli/objects/tricycle.jpg,1,2,stimuli/white_butterfly.png,0,8,2021-01-15_16h18.19.271,premce3DEU_ses-02_part-01_label-phase1,2020.1.2,MacIntel,60,,,,,up,1,0.949,0,11,11,11,1,,,,,,,,
,,,,,1,"[0,1,1,1,1,1,1,1,1,1,1,1,1,1,1,1,1,1,1,1,1,1,1,1]",1,,,,,,stimuli/grey_butterfly.png,stimuli/white_butterfly.png,2,stimuli/green_flower.png,stimuli/red_flower.png,stimuli/blue_flower.png,stimuli/yellow_flower.png,down,stimuli/objects/beaver.jpg,1,2,stimuli/white_butterfly.png,0,8,2021-01-15_16h18.19.271,premce3DEU_ses-02_part-01_label-phase1,2020.1.2,MacIntel,60,,,,,down,1,0.817,0,12,12,12,1,,,,,,,,
,,,,,1,"[0,1,1,1,1,1,1,1,1,1,1,1,1,1,1,1,1,1,1,1,1,1,1,1,1]",1,,,,,,stimuli/grey_butterfly.png,stimuli/white_butterfly.png,1,stimuli/green_flower.png,stimuli/yellow_flower.png,stimuli/red_flower.png,stimuli/blue_flower.png,down,stimuli/objects/fridge.jpg,1,2,stimuli/grey_butterfly.png,0,8,2021-01-15_16h18.19.271,premce3DEU_ses-02_part-01_label-phase1,2020.1.2,MacIntel,60,,,,,down,1,1.055,0,13,13,13,1,,,,,,,,
,,,,,1,"[0,1,1,1,1,1,1,1,1,1,1,1,1,1,1,1,1,1,1,1,1,1,1,1,1,1]",1,,,,,,stimuli/grey_butterfly.png,stimuli/white_butterfly.png,1,stimuli/red_flower.png,stimuli/green_flower.png,stimuli/blue_flower.png,stimuli/yellow_flower.png,left,stimuli/objects/moon.jpg,1,2,stimuli/grey_butterfly.png,0,8,2021-01-15_16h18.19.271,premce3DEU_ses-02_part-01_label-phase1,2020.1.2,MacIntel,60,,,,,left,1,0.783,0,14,14,14,1,,,,,,,,
,,,,,0,"[0,1,1,1,1,1,1,1,1,1,1,1,1,1,1,1,1,1,1,1,1,1,1,1,1,1,1]",1,,,,,,stimuli/white_butterfly.png,stimuli/grey_butterfly.png,2,stimuli/green_flower.png,stimuli/blue_flower.png,stimuli/red_flower.png,stimuli/yellow_flower.png,left,stimuli/objects/lionstatue.jpg,0,2,stimuli/grey_butterfly.png,0,8,2021-01-15_16h18.19.271,premce3DEU_ses-02_part-01_label-phase1,2020.1.2,MacIntel,60,,,,,down,0,0.627,0,15,15,15,1,,,,,,,,
,,,,,1,"[0,1,1,1,1,1,1,1,1,1,1,1,1,1,1,1,1,1,1,1,1,1,1,1,1,1,1]",1,,,,,,stimuli/grey_butterfly.png,stimuli/white_butterfly.png,2,stimuli/blue_flower.png,stimuli/green_flower.png,stimuli/red_flower.png,stimuli/yellow_flower.png,left,stimuli/objects/bowlingpin.jpg,1,2,stimuli/white_butterfly.png,0,8,2021-01-15_16h18.19.271,premce3DEU_ses-02_part-01_label-phase1,2020.1.2,MacIntel,60,,,,,left,1,0.732,0,16,16,16,1,,,,,,,,
,,,,,1,"[0,1,1,1,1,1,1,1,1,1,1,1,1,1,1,1,1,1,1,1,1,1,1,1,1,1,1,1]",1,,,,,,stimuli/grey_butterfly.png,stimuli/white_butterfly.png,2,stimuli/yellow_flower.png,stimuli/red_flower.png,stimuli/green_flower.png,stimuli/blue_flower.png,right,stimuli/objects/dolphin01.jpg,1,2,stimuli/white_butterfly.png,0,8,2021-01-15_16h18.19.271,premce3DEU_ses-02_part-01_label-phase1,2020.1.2,MacIntel,60,,,,,right,1,1.306,0,17,17,17,1,,,,,,,,
,,,,,1,"[0,1,1,1,1,1,1,1,1,1,1,1,1,1,1,1,1,1,1,1,1,1,1,1,1,1,1,1,1]",1,,,,,,stimuli/white_butterfly.png,stimuli/grey_butterfly.png,1,stimuli/red_flower.png,stimuli/blue_flower.png,stimuli/yellow_flower.png,stimuli/green_flower.png,up,stimuli/objects/butterfly5.jpg,1,2,stimuli/white_butterfly.png,0,8,2021-01-15_16h18.19.271,premce3DEU_ses-02_part-01_label-phase1,2020.1.2,MacIntel,60,,,,,up,1,0.699,0,18,18,18,1,,,,,,,,
,,,,,1,"[0,1,1,1,1,1,1,1,1,1,1,1,1,1,1,1,1,1,1,1,1,1,1,1,1,1,1,1,1,1]",1,,,,,,stimuli/grey_butterfly.png,stimuli/white_butterfly.png,1,stimuli/red_flower.png,stimuli/blue_flower.png,stimuli/green_flower.png,stimuli/yellow_flower.png,left,stimuli/objects/sandcastle.jpg,1,2,stimuli/grey_butterfly.png,0,8,2021-01-15_16h18.19.271,premce3DEU_ses-02_part-01_label-phase1,2020.1.2,MacIntel,60,,,,,left,1,0.924,0,19,19,19,1,,,,,,,,
,,,,,0,"[0,1,1,1,1,1,1,1,1,1,1,1,1,1,1,1,1,1,1,1,1,1,1,1,1,1,1,1,1,1,1]",1,,,,,,stimuli/white_butterfly.png,stimuli/grey_butterfly.png,2,stimuli/blue_flower.png,stimuli/green_flower.png,stimuli/yellow_flower.png,stimuli/red_flower.png,left,stimuli/objects/winniethepooh.jpg,0,2,stimuli/grey_butterfly.png,0,8,2021-01-15_16h18.19.271,premce3DEU_ses-02_part-01_label-phase1,2020.1.2,MacIntel,60,,,,,right,0,1.114,0,20,20,20,1,,,,,,,,
,,,,,1,"[0,1,1,1,1,1,1,1,1,1,1,1,1,1,1,1,1,1,1,1,1,1,1,1,1,1,1,1,1,1,1]",1,,,,,,stimuli/grey_butterfly.png,stimuli/white_butterfly.png,1,stimuli/green_flower.png,stimuli/blue_flower.png,stimuli/red_flower.png,stimuli/yellow_flower.png,down,stimuli/objects/mirror02.jpg,1,2,stimuli/grey_butterfly.png,1,8,2021-01-15_16h18.19.271,premce3DEU_ses-02_part-01_label-phase1,2020.1.2,MacIntel,60,,,,,down,1,0.71,0,21,21,21,1,,,,,,,,
,,,,,1,"[0,1,1,1,1,1,1,1,1,1,1,1,1,1,1,1,1,1,1,1,1,1,1,1,1,1,1,1,1,1,1,1]",1,,,,,,stimuli/white_butterfly.png,stimuli/grey_butterfly.png,2,stimuli/yellow_flower.png,stimuli/red_flower.png,stimuli/green_flower.png,stimuli/blue_flower.png,up,stimuli/objects/bacon.jpg,1,2,stimuli/grey_butterfly.png,1,8,2021-01-15_16h18.19.271,premce3DEU_ses-02_part-01_label-phase1,2020.1.2,MacIntel,60,,,,,up,1,0.819,0,22,22,22,1,,,,,,,,
,,,,,1,"[0,1,1,1,1,1,1,1,1,1,1,1,1,1,1,1,1,1,1,1,1,1,1,1,1,1,1,1,1,1,1,1,1]",1,,,,,,stimuli/grey_butterfly.png,stimuli/white_butterfly.png,1,stimuli/red_flower.png,stimuli/yellow_flower.png,stimuli/blue_flower.png,stimuli/green_flower.png,left,stimuli/objects/triangle.jpg,1,2,stimuli/grey_butterfly.png,1,8,2021-01-15_16h18.19.271,premce3DEU_ses-02_part-01_label-phase1,2020.1.2,MacIntel,60,,,,,left,1,1.51,0,23,23,23,1,,,,,,,,
,,,,,0,"[0,1,1,1,1,1,1,1,1,1,1,1,1,1,1,1,1,1,1,1,1,1,1,1,1,1,1,1,1,1,1,1,1,1]",1,,,,,,stimuli/grey_butterfly.png,stimuli/white_butterfly.png,2,stimuli/red_flower.png,stimuli/green_flower.png,stimuli/yellow_flower.png,stimuli/blue_flower.png,down,stimuli/objects/chipmunk.jpg,0,2,stimuli/white_butterfly.png,1,8,2021-01-15_16h18.19.271,premce3DEU_ses-02_part-01_label-phase1,2020.1.2,MacIntel,60,,,,,right,0,0.642,0,24,24,24,1,,,,,,,,
,,,,,1,"[0,1,1,1,1,1,1,1,1,1,1,1,1,1,1,1,1,1,1,1,1,1,1,1,1,1,1,1,1,1,1,1,1,1]",1,,,,,,stimuli/white_butterfly.png,stimuli/grey_butterfly.png,2,stimuli/red_flower.png,stimuli/blue_flower.png,stimuli/yellow_flower.png,stimuli/green_flower.png,left,stimuli/objects/jokercard.jpg,1,2,stimuli/grey_butterfly.png,1,8,2021-01-15_16h18.19.271,premce3DEU_ses-02_part-01_label-phase1,2020.1.2,MacIntel,60,,,,,left,1,0.608,0,25,25,25,1,,,,,,,,
,,,,,1,"[0,1,1,1,1,1,1,1,1,1,1,1,1,1,1,1,1,1,1,1,1,1,1,1,1,1,1,1,1,1,1,1,1,1,1]",1,,,,,,stimuli/grey_butterfly.png,stimuli/white_butterfly.png,1,stimuli/yellow_flower.png,stimuli/blue_flower.png,stimuli/green_flower.png,stimuli/red_flower.png,right,stimuli/objects/bookshelf.jpg,1,2,stimuli/grey_butterfly.png,1,8,2021-01-15_16h18.19.271,premce3DEU_ses-02_part-01_label-phase1,2020.1.2,MacIntel,60,,,,,right,1,0.697,0,26,26,26,1,,,,,,,,
,,,,,1,"[0,1,1,1,1,1,1,1,1,1,1,1,1,1,1,1,1,1,1,1,1,1,1,1,1,1,1,1,1,1,1,1,1,1,1,1]",1,,,,,,stimuli/white_butterfly.png,stimuli/grey_butterfly.png,2,stimuli/red_flower.png,stimuli/yellow_flower.png,stimuli/green_flower.png,stimuli/blue_flower.png,left,stimuli/objects/jeans01.jpg,1,2,stimuli/grey_butterfly.png,1,8,2021-01-15_16h18.19.271,premce3DEU_ses-02_part-01_label-phase1,2020.1.2,MacIntel,60,,,,,left,1,0.927,0,27,27,27,1,,,,,,,,
,,,,,1,"[0,1,1,1,1,1,1,1,1,1,1,1,1,1,1,1,1,1,1,1,1,1,1,1,1,1,1,1,1,1,1,1,1,1,1,1,1]",1,,,,,,stimuli/grey_butterfly.png,stimuli/white_butterfly.png,2,stimuli/blue_flower.png,stimuli/red_flower.png,stimuli/green_flower.png,stimuli/yellow_flower.png,left,stimuli/objects/dogsled.jpg,1,2,stimuli/white_butterfly.png,1,8,2021-01-15_16h18.19.271,premce3DEU_ses-02_part-01_label-phase1,2020.1.2,MacIntel,60,,,,,left,1,1.15,0,28,28,28,1,,,,,,,,
,,,,,1,"[0,1,1,1,1,1,1,1,1,1,1,1,1,1,1,1,1,1,1,1,1,1,1,1,1,1,1,1,1,1,1,1,1,1,1,1,1,1]",1,,,,,,stimuli/grey_butterfly.png,stimuli/white_butterfly.png,1,stimuli/green_flower.png,stimuli/red_flower.png,stimuli/yellow_flower.png,stimuli/blue_flower.png,up,stimuli/objects/artichoke01b.jpg,1,2,stimuli/grey_butterfly.png,1,8,2021-01-15_16h18.19.271,premce3DEU_ses-02_part-01_label-phase1,2020.1.2,MacIntel,60,,,,,up,1,0.774,0,29,29,29,1,,,,,,,,
,,,,,1,"[0,1,1,1,1,1,1,1,1,1,1,1,1,1,1,1,1,1,1,1,1,1,1,1,1,1,1,1,1,1,1,1,1,1,1,1,1,1,1]",1,,,,,,stimuli/white_butterfly.png,stimuli/grey_butterfly.png,1,stimuli/green_flower.png,stimuli/red_flower.png,stimuli/yellow_flower.png,stimuli/blue_flower.png,right,stimuli/objects/gong.jpg,1,2,stimuli/white_butterfly.png,1,8,2021-01-15_16h18.19.271,premce3DEU_ses-02_part-01_label-phase1,2020.1.2,MacIntel,60,,,,,right,1,0.818,0,30,30,30,1,,,,,,,,
,,,,,1,"[0,1,1,1,1,1,1,1,1,1,1,1,1,1,1,1,1,1,1,1,1,1,1,1,1,1,1,1,1,1,1,1,1,1,1,1,1,1,1,1]",1,,,,,,stimuli/white_butterfly.png,stimuli/grey_butterfly.png,2,stimuli/yellow_flower.png,stimuli/red_flower.png,stimuli/blue_flower.png,stimuli/green_flower.png,up,stimuli/objects/exitsign.jpg,1,2,stimuli/grey_butterfly.png,1,8,2021-01-15_16h18.19.271,premce3DEU_ses-02_part-01_label-phase1,2020.1.2,MacIntel,60,,,,,up,1,0.765,0,31,31,31,1,,,,,,,,
,,,,,1,"[0,1,1,1,1,1,1,1,1,1,1,1,1,1,1,1,1,1,1,1,1,1,1,1,1,1,1,1,1,1,1,1,1,1,1,1,1,1,1,1,1]",1,,,,,,stimuli/grey_butterfly.png,stimuli/white_butterfly.png,2,stimuli/blue_flower.png,stimuli/yellow_flower.png,stimuli/green_flower.png,stimuli/red_flower.png,left,stimuli/objects/zebra.jpg,1,2,stimuli/white_butterfly.png,1,8,2021-01-15_16h18.19.271,premce3DEU_ses-02_part-01_label-phase1,2020.1.2,MacIntel,60,,,,,left,1,0.681,0,32,32,32,1,,,,,,,,
,,,,,1,"[0,1,1,1,1,1,1,1,1,1,1,1,1,1,1,1,1,1,1,1,1,1,1,1,1,1,1,1,1,1,1,1,1,1,1,1,1,1,1,1,1,1]",1,,,,,,stimuli/grey_butterfly.png,stimuli/white_butterfly.png,1,stimuli/red_flower.png,stimuli/blue_flower.png,stimuli/yellow_flower.png,stimuli/green_flower.png,left,stimuli/objects/apron.jpg,1,2,stimuli/grey_butterfly.png,1,8,2021-01-15_16h18.19.271,premce3DEU_ses-02_part-01_label-phase1,2020.1.2,MacIntel,60,,,,,left,1,0.892,0,33,33,33,1,,,,,,,,
,,,,,1,"[0,1,1,1,1,1,1,1,1,1,1,1,1,1,1,1,1,1,1,1,1,1,1,1,1,1,1,1,1,1,1,1,1,1,1,1,1,1,1,1,1,1,1]",1,,,,,,stimuli/grey_butterfly.png,stimuli/white_butterfly.png,2,stimuli/green_flower.png,stimuli/red_flower.png,stimuli/yellow_flower.png,stimuli/blue_flower.png,right,stimuli/objects/dalmatian.jpg,1,2,stimuli/white_butterfly.png,1,8,2021-01-15_16h18.19.271,premce3DEU_ses-02_part-01_label-phase1,2020.1.2,MacIntel,60,,,,,right,1,0.963,0,34,34,34,1,,,,,,,,
,,,,,1,"[0,1,1,1,1,1,1,1,1,1,1,1,1,1,1,1,1,1,1,1,1,1,1,1,1,1,1,1,1,1,1,1,1,1,1,1,1,1,1,1,1,1,1,1]",1,,,,,,stimuli/grey_butterfly.png,stimuli/white_butterfly.png,1,stimuli/green_flower.png,stimuli/yellow_flower.png,stimuli/blue_flower.png,stimuli/red_flower.png,right,stimuli/objects/butterfly2.jpg,1,2,stimuli/grey_butterfly.png,1,8,2021-01-15_16h18.19.271,premce3DEU_ses-02_part-01_label-phase1,2020.1.2,MacIntel,60,,,,,right,1,1.384,0,35,35,35,1,,,,,,,,
,,,,,1,"[0,1,1,1,1,1,1,1,1,1,1,1,1,1,1,1,1,1,1,1,1,1,1,1,1,1,1,1,1,1,1,1,1,1,1,1,1,1,1,1,1,1,1,1,1]",1,,,,,,stimuli/white_butterfly.png,stimuli/grey_butterfly.png,1,stimuli/blue_flower.png,stimuli/red_flower.png,stimuli/yellow_flower.png,stimuli/green_flower.png,left,stimuli/objects/whiteout.jpg,1,2,stimuli/white_butterfly.png,1,8,2021-01-15_16h18.19.271,premce3DEU_ses-02_part-01_label-phase1,2020.1.2,MacIntel,60,,,,,left,1,0.761,0,36,36,36,1,,,,,,,,
,,,,,1,"[0,1,1,1,1,1,1,1,1,1,1,1,1,1,1,1,1,1,1,1,1,1,1,1,1,1,1,1,1,1,1,1,1,1,1,1,1,1,1,1,1,1,1,1,1,1]",1,,,,,,stimuli/grey_butterfly.png,stimuli/white_butterfly.png,2,stimuli/green_flower.png,stimuli/yellow_flower.png,stimuli/blue_flower.png,stimuli/red_flower.png,down,stimuli/objects/star.jpg,1,2,stimuli/white_butterfly.png,1,8,2021-01-15_16h18.19.271,premce3DEU_ses-02_part-01_label-phase1,2020.1.2,MacIntel,60,,,,,down,1,0.686,0,37,37,37,1,,,,,,,,
,,,,,1,"[0,1,1,1,1,1,1,1,1,1,1,1,1,1,1,1,1,1,1,1,1,1,1,1,1,1,1,1,1,1,1,1,1,1,1,1,1,1,1,1,1,1,1,1,1,1,1]",1,,,,,,stimuli/grey_butterfly.png,stimuli/white_butterfly.png,2,stimuli/green_flower.png,stimuli/yellow_flower.png,stimuli/red_flower.png,stimuli/blue_flower.png,right,stimuli/objects/golfball.jpg,1,2,stimuli/white_butterfly.png,1,8,2021-01-15_16h18.19.271,premce3DEU_ses-02_part-01_label-phase1,2020.1.2,MacIntel,60,,,,,right,1,0.874,0,38,38,38,1,,,,,,,,
,,,,,1,"[0,1,1,1,1,1,1,1,1,1,1,1,1,1,1,1,1,1,1,1,1,1,1,1,1,1,1,1,1,1,1,1,1,1,1,1,1,1,1,1,1,1,1,1,1,1,1,1]",1,,,,,,stimuli/white_butterfly.png,stimuli/grey_butterfly.png,2,stimuli/green_flower.png,stimuli/red_flower.png,stimuli/blue_flower.png,stimuli/yellow_flower.png,up,stimuli/objects/skateboard.jpg,1,2,stimuli/grey_butterfly.png,1,8,2021-01-15_16h18.19.271,premce3DEU_ses-02_part-01_label-phase1,2020.1.2,MacIntel,60,,,,,up,1,0.615,0,39,39,39,1,,,,,,,,
,,,,,1,"[0,1,1,1,1,1,1,1,1,1,1,1,1,1,1,1,1,1,1,1,1,1,1,1,1,1,1,1,1,1,1,1,1,1,1,1,1,1,1,1,1,1,1,1,1,1,1,1,1]",1,,,,,,stimuli/grey_butterfly.png,stimuli/white_butterfly.png,1,stimuli/blue_flower.png,stimuli/yellow_flower.png,stimuli/green_flower.png,stimuli/red_flower.png,right,stimuli/objects/crab01.jpg,1,2,stimuli/grey_butterfly.png,1,8,2021-01-15_16h18.19.271,premce3DEU_ses-02_part-01_label-phase1,2020.1.2,MacIntel,60,,,,,right,1,0.902,0,40,40,40,1,,,,,,,,
,,,,,1,"[0,1,1,1,1,1,1,1,1,1,1,1,1,1,1,1,1,1,1,1,1,1,1,1,1,1,1,1,1,1,1,1,1,1,1,1,1,1,1,1,1,1,1,1,1,1,1,1,1,1]",1,,,,,,stimuli/grey_butterfly.png,stimuli/white_butterfly.png,2,stimuli/green_flower.png,stimuli/blue_flower.png,stimuli/red_flower.png,stimuli/yellow_flower.png,up,stimuli/objects/snowman.jpg,1,2,stimuli/white_butterfly.png,1,8,2021-01-15_16h18.19.271,premce3DEU_ses-02_part-01_label-phase1,2020.1.2,MacIntel,60,,,,,up,1,0.594,0,41,41,41,1,,,,,,,,
,,,,,,,,,,,,,,,,,,,,,,,,,,8,2021-01-15_16h18.19.271,premce3DEU_ses-02_part-01_label-phase1,2020.1.2,MacIntel,60,,,,,,,,,,,,,0,0,0,0,1,condition_files/tasklistAplus1.csv,,
,,,,,0,"[0,1,1,1,1,1,1,1,1,1,1,1,1,1,1,1,1,1,1,1,1,1,1,1,1,1,1,1,1,1,1,1,1,1,1,1,1,1,1,1,1,1,1,1,1,1,1,1,1,1,1]",0,,,,,,stimuli/grey_butterfly.png,stimuli/white_butterfly.png,2,stimuli/yellow_flower.png,stimuli/blue_flower.png,stimuli/red_flower.png,stimuli/green_flower.png,right,stimuli/objects/cork02.jpg,1,3,stimuli/white_butterfly.png,0,8,2021-01-15_16h18.19.271,premce3DEU_ses-02_part-01_label-phase1,2020.1.2,MacIntel,60,,,,,up,0,1.312,0,0,0,0,1,,,,,,,,
,,,,,0,"[0,1,1,1,1,1,1,1,1,1,1,1,1,1,1,1,1,1,1,1,1,1,1,1,1,1,1,1,1,1,1,1,1,1,1,1,1,1,1,1,1,1,1,1,1,1,1,1,1,1,1,0]",0,,,,,,stimuli/white_butterfly.png,stimuli/grey_butterfly.png,1,stimuli/red_flower.png,stimuli/blue_flower.png,stimuli/yellow_flower.png,stimuli/green_flower.png,right,stimuli/objects/trombone.jpg,1,3,stimuli/white_butterfly.png,0,8,2021-01-15_16h18.19.271,premce3DEU_ses-02_part-01_label-phase1,2020.1.2,MacIntel,60,,,,,up,0,0.797,0,1,1,1,1,,,,,,,,
,,,,,0,"[0,1,1,1,1,1,1,1,1,1,1,1,1,1,1,1,1,1,1,1,1,1,1,1,1,1,1,1,1,1,1,1,1,1,1,1,1,1,1,1,1,1,1,1,1,1,1,1,1,1,1,0,0]",0,,,,,,stimuli/white_butterfly.png,stimuli/grey_butterfly.png,2,stimuli/green_flower.png,stimuli/yellow_flower.png,stimuli/blue_flower.png,stimuli/red_flower.png,up,stimuli/objects/electricguitar01.jpg,1,3,stimuli/grey_butterfly.png,0,8,2021-01-15_16h18.19.271,premce3DEU_ses-02_part-01_label-phase1,2020.1.2,MacIntel,60,,,,,right,0,0.533,0,2,2,2,1,,,,,,,,
,,,,,1,"[0,1,1,1,1,1,1,1,1,1,1,1,1,1,1,1,1,1,1,1,1,1,1,1,1,1,1,1,1,1,1,1,1,1,1,1,1,1,1,1,1,1,1,1,1,1,1,1,1,1,1,0,0,0]",1,,,,,,stimuli/white_butterfly.png,stimuli/grey_butterfly.png,1,stimuli/blue_flower.png,stimuli/red_flower.png,stimuli/yellow_flower.png,stimuli/green_flower.png,right,stimuli/objects/hockeypuck.jpg,1,3,stimuli/white_butterfly.png,0,8,2021-01-15_16h18.19.271,premce3DEU_ses-02_part-01_label-phase1,2020.1.2,MacIntel,60,,,,,right,1,0.64,0,3,3,3,1,,,,,,,,
,,,,,0,"[0,1,1,1,1,1,1,1,1,1,1,1,1,1,1,1,1,1,1,1,1,1,1,1,1,1,1,1,1,1,1,1,1,1,1,1,1,1,1,1,1,1,1,1,1,1,1,1,1,1,1,0,0,0,1]",1,,,,,,stimuli/white_butterfly.png,stimuli/grey_butterfly.png,1,stimuli/yellow_flower.png,stimuli/green_flower.png,stimuli/blue_flower.png,stimuli/red_flower.png,left,stimuli/objects/windshieldwiper02.jpg,0,3,stimuli/white_butterfly.png,0,8,2021-01-15_16h18.19.271,premce3DEU_ses-02_part-01_label-phase1,2020.1.2,MacIntel,60,,,,,up,0,0.585,0,4,4,4,1,,,,,,,,
,,,,,1,"[0,1,1,1,1,1,1,1,1,1,1,1,1,1,1,1,1,1,1,1,1,1,1,1,1,1,1,1,1,1,1,1,1,1,1,1,1,1,1,1,1,1,1,1,1,1,1,1,1,1,1,0,0,0,1]",1,,,,,,stimuli/white_butterfly.png,stimuli/grey_butterfly.png,2,stimuli/yellow_flower.png,stimuli/red_flower.png,stimuli/blue_flower.png,stimuli/green_flower.png,left,stimuli/objects/sailboat.jpg,1,3,stimuli/grey_butterfly.png,0,8,2021-01-15_16h18.19.271,premce3DEU_ses-02_part-01_label-phase1,2020.1.2,MacIntel,60,,,,,left,1,0.892,0,5,5,5,1,,,,,,,,
,,,,,1,"[0,1,1,1,1,1,1,1,1,1,1,1,1,1,1,1,1,1,1,1,1,1,1,1,1,1,1,1,1,1,1,1,1,1,1,1,1,1,1,1,1,1,1,1,1,1,1,1,1,1,1,0,0,0,1,1]",1,,,,,,stimuli/grey_butterfly.png,stimuli/white_butterfly.png,2,stimuli/blue_flower.png,stimuli/yellow_flower.png,stimuli/green_flower.png,stimuli/red_flower.png,down,stimuli/objects/surfboard.jpg,1,3,stimuli/white_butterfly.png,0,8,2021-01-15_16h18.19.271,premce3DEU_ses-02_part-01_label-phase1,2020.1.2,MacIntel,60,,,,,down,1,1.465,0,6,6,6,1,,,,,,,,
,,,,,1,"[0,1,1,1,1,1,1,1,1,1,1,1,1,1,1,1,1,1,1,1,1,1,1,1,1,1,1,1,1,1,1,1,1,1,1,1,1,1,1,1,1,1,1,1,1,1,1,1,1,1,1,0,0,0,1,1,1]",1,,,,,,stimuli/grey_butterfly.png,stimuli/white_butterfly.png,2,stimuli/blue_flower.png,stimuli/green_flower.png,stimuli/yellow_flower.png,stimuli/red_flower.png,up,stimuli/objects/desktopcomputer.jpg,1,3,stimuli/white_butterfly.png,0,8,2021-01-15_16h18.19.271,premce3DEU_ses-02_part-01_label-phase1,2020.1.2,MacIntel,60,,,,,up,1,0.573,0,7,7,7,1,,,,,,,,
,,,,,1,"[0,1,1,1,1,1,1,1,1,1,1,1,1,1,1,1,1,1,1,1,1,1,1,1,1,1,1,1,1,1,1,1,1,1,1,1,1,1,1,1,1,1,1,1,1,1,1,1,1,1,1,0,0,0,1,1,1,1]",1,,,,,,stimuli/white_butterfly.png,stimuli/grey_butterfly.png,2,stimuli/blue_flower.png,stimuli/green_flower.png,stimuli/red_flower.png,stimuli/yellow_flower.png,right,stimuli/objects/baseballglove.jpg,1,3,stimuli/grey_butterfly.png,0,8,2021-01-15_16h18.19.271,premce3DEU_ses-02_part-01_label-phase1,2020.1.2,MacIntel,60,,,,,right,1,0.576,0,8,8,8,1,,,,,,,,
,,,,,1,"[0,1,1,1,1,1,1,1,1,1,1,1,1,1,1,1,1,1,1,1,1,1,1,1,1,1,1,1,1,1,1,1,1,1,1,1,1,1,1,1,1,1,1,1,1,1,1,1,1,1,1,0,0,0,1,1,1,1,1]",1,,,,,,stimuli/grey_butterfly.png,stimuli/white_butterfly.png,2,stimuli/green_flower.png,stimuli/blue_flower.png,stimuli/yellow_flower.png,stimuli/red_flower.png,left,stimuli/objects/bolt01a.jpg,1,3,stimuli/white_butterfly.png,0,8,2021-01-15_16h18.19.271,premce3DEU_ses-02_part-01_label-phase1,2020.1.2,MacIntel,60,,,,,left,1,1.811,0,9,9,9,1,,,,,,,,
,,,,,1,"[0,1,1,1,1,1,1,1,1,1,1,1,1,1,1,1,1,1,1,1,1,1,1,1,1,1,1,1,1,1,1,1,1,1,1,1,1,1,1,1,1,1,1,1,1,1,1,1,1,1,1,0,0,0,1,1,1,1,1,1]",1,,,,,,stimuli/white_butterfly.png,stimuli/grey_butterfly.png,2,stimuli/red_flower.png,stimuli/blue_flower.png,stimuli/yellow_flower.png,stimuli/green_flower.png,down,stimuli/objects/spicerack.jpg,1,3,stimuli/grey_butterfly.png,0,8,2021-01-15_16h18.19.271,premce3DEU_ses-02_part-01_label-phase1,2020.1.2,MacIntel,60,,,,,down,1,1.014,0,10,10,10,1,,,,,,,,
,,,,,0,"[0,1,1,1,1,1,1,1,1,1,1,1,1,1,1,1,1,1,1,1,1,1,1,1,1,1,1,1,1,1,1,1,1,1,1,1,1,1,1,1,1,1,1,1,1,1,1,1,1,1,1,0,0,0,1,1,1,1,1,1,1]",0,,,,,,stimuli/grey_butterfly.png,stimuli/white_butterfly.png,2,stimuli/yellow_flower.png,stimuli/red_flower.png,stimuli/green_flower.png,stimuli/blue_flower.png,down,stimuli/objects/hockeystick.jpg,1,3,stimuli/white_butterfly.png,0,8,2021-01-15_16h18.19.271,premce3DEU_ses-02_part-01_label-phase1,2020.1.2,MacIntel,60,,,,,left,0,1.393,0,11,11,11,1,,,,,,,,
,,,,,1,"[0,1,1,1,1,1,1,1,1,1,1,1,1,1,1,1,1,1,1,1,1,1,1,1,1,1,1,1,1,1,1,1,1,1,1,1,1,1,1,1,1,1,1,1,1,1,1,1,1,1,1,0,0,0,1,1,1,1,1,1,1,0]",1,,,,,,stimuli/white_butterfly.png,stimuli/grey_butterfly.png,2,stimuli/yellow_flower.png,stimuli/red_flower.png,stimuli/green_flower.png,stimuli/blue_flower.png,left,stimuli/objects/ipad02.jpg,1,3,stimuli/grey_butterfly.png,0,8,2021-01-15_16h18.19.271,premce3DEU_ses-02_part-01_label-phase1,2020.1.2,MacIntel,60,,,,,left,1,1.55,0,12,12,12,1,,,,,,,,
,,,,,1,"[0,1,1,1,1,1,1,1,1,1,1,1,1,1,1,1,1,1,1,1,1,1,1,1,1,1,1,1,1,1,1,1,1,1,1,1,1,1,1,1,1,1,1,1,1,1,1,1,1,1,1,0,0,0,1,1,1,1,1,1,1,0,1]",1,,,,,,stimuli/grey_butterfly.png,stimuli/white_butterfly.png,1,stimuli/yellow_flower.png,stimuli/blue_flower.png,stimuli/red_flower.png,stimuli/green_flower.png,left,stimuli/objects/locomotive.jpg,1,3,stimuli/grey_butterfly.png,0,8,2021-01-15_16h18.19.271,premce3DEU_ses-02_part-01_label-phase1,2020.1.2,MacIntel,60,,,,,left,1,0.575,0,13,13,13,1,,,,,,,,
,,,,,1,"[0,1,1,1,1,1,1,1,1,1,1,1,1,1,1,1,1,1,1,1,1,1,1,1,1,1,1,1,1,1,1,1,1,1,1,1,1,1,1,1,1,1,1,1,1,1,1,1,1,1,1,0,0,0,1,1,1,1,1,1,1,0,1,1]",1,,,,,,stimuli/white_butterfly.png,stimuli/grey_butterfly.png,2,stimuli/blue_flower.png,stimuli/red_flower.png,stimuli/green_flower.png,stimuli/yellow_flower.png,right,stimuli/objects/lintroller.jpg,1,3,stimuli/grey_butterfly.png,0,8,2021-01-15_16h18.19.271,premce3DEU_ses-02_part-01_label-phase1,2020.1.2,MacIntel,60,,,,,right,1,1.154,0,14,14,14,1,,,,,,,,
,,,,,1,"[0,1,1,1,1,1,1,1,1,1,1,1,1,1,1,1,1,1,1,1,1,1,1,1,1,1,1,1,1,1,1,1,1,1,1,1,1,1,1,1,1,1,1,1,1,1,1,1,1,1,1,0,0,0,1,1,1,1,1,1,1,0,1,1,1]",1,,,,,,stimuli/grey_butterfly.png,stimuli/white_butterfly.png,2,stimuli/green_flower.png,stimuli/yellow_flower.png,stimuli/blue_flower.png,stimuli/red_flower.png,left,stimuli/objects/butterfly2.jpg,1,3,stimuli/white_butterfly.png,0,8,2021-01-15_16h18.19.271,premce3DEU_ses-02_part-01_label-phase1,2020.1.2,MacIntel,60,,,,,left,1,1.582,0,15,15,15,1,,,,,,,,
,,,,,1,"[0,1,1,1,1,1,1,1,1,1,1,1,1,1,1,1,1,1,1,1,1,1,1,1,1,1,1,1,1,1,1,1,1,1,1,1,1,1,1,1,1,1,1,1,1,1,1,1,1,1,1,0,0,0,1,1,1,1,1,1,1,0,1,1,1,1]",1,,,,,,stimuli/white_butterfly.png,stimuli/grey_butterfly.png,1,stimuli/green_flower.png,stimuli/red_flower.png,stimuli/yellow_flower.png,stimuli/blue_flower.png,left,stimuli/objects/coffeemachine.jpg,1,3,stimuli/white_butterfly.png,0,8,2021-01-15_16h18.19.271,premce3DEU_ses-02_part-01_label-phase1,2020.1.2,MacIntel,60,,,,,left,1,0.665,0,16,16,16,1,,,,,,,,
,,,,,0,"[0,1,1,1,1,1,1,1,1,1,1,1,1,1,1,1,1,1,1,1,1,1,1,1,1,1,1,1,1,1,1,1,1,1,1,1,1,1,1,1,1,1,1,1,1,1,1,1,1,1,1,0,0,0,1,1,1,1,1,1,1,0,1,1,1,1,1]",1,,,,,,stimuli/grey_butterfly.png,stimuli/white_butterfly.png,1,stimuli/blue_flower.png,stimuli/yellow_flower.png,stimuli/red_flower.png,stimuli/green_flower.png,down,stimuli/objects/lightswitch01.jpg,0,3,stimuli/grey_butterfly.png,0,8,2021-01-15_16h18.19.271,premce3DEU_ses-02_part-01_label-phase1,2020.1.2,MacIntel,60,,,,,up,0,0.601,0,17,17,17,1,,,,,,,,
,,,,,1,"[0,1,1,1,1,1,1,1,1,1,1,1,1,1,1,1,1,1,1,1,1,1,1,1,1,1,1,1,1,1,1,1,1,1,1,1,1,1,1,1,1,1,1,1,1,1,1,1,1,1,1,0,0,0,1,1,1,1,1,1,1,0,1,1,1,1,1]",1,,,,,,stimuli/grey_butterfly.png,stimuli/white_butterfly.png,2,stimuli/green_flower.png,stimuli/red_flower.png,stimuli/yellow_flower.png,stimuli/blue_flower.png,left,stimuli/objects/asianelephant.jpg,1,3,stimuli/white_butterfly.png,0,8,2021-01-15_16h18.19.271,premce3DEU_ses-02_part-01_label-phase1,2020.1.2,MacIntel,60,,,,,left,1,0.609,0,18,18,18,1,,,,,,,,
,,,,,1,"[0,1,1,1,1,1,1,1,1,1,1,1,1,1,1,1,1,1,1,1,1,1,1,1,1,1,1,1,1,1,1,1,1,1,1,1,1,1,1,1,1,1,1,1,1,1,1,1,1,1,1,0,0,0,1,1,1,1,1,1,1,0,1,1,1,1,1,1]",1,,,,,,stimuli/grey_butterfly.png,stimuli/white_butterfly.png,1,stimuli/yellow_flower.png,stimuli/red_flower.png,stimuli/green_flower.png,stimuli/blue_flower.png,left,stimuli/objects/showerhead01.jpg,1,3,stimuli/grey_butterfly.png,0,8,2021-01-15_16h18.19.271,premce3DEU_ses-02_part-01_label-phase1,2020.1.2,MacIntel,60,,,,,left,1,0.593,0,19,19,19,1,,,,,,,,
,,,,,1,"[0,1,1,1,1,1,1,1,1,1,1,1,1,1,1,1,1,1,1,1,1,1,1,1,1,1,1,1,1,1,1,1,1,1,1,1,1,1,1,1,1,1,1,1,1,1,1,1,1,1,1,0,0,0,1,1,1,1,1,1,1,0,1,1,1,1,1,1,1]",1,,,,,,stimuli/white_butterfly.png,stimuli/grey_butterfly.png,1,stimuli/red_flower.png,stimuli/green_flower.png,stimuli/yellow_flower.png,stimuli/blue_flower.png,up,stimuli/objects/snowshovel.jpg,1,3,stimuli/white_butterfly.png,0,8,2021-01-15_16h18.19.271,premce3DEU_ses-02_part-01_label-phase1,2020.1.2,MacIntel,60,,,,,up,1,1.663,0,20,20,20,1,,,,,,,,
,,,,,0,"[0,1,1,1,1,1,1,1,1,1,1,1,1,1,1,1,1,1,1,1,1,1,1,1,1,1,1,1,1,1,1,1,1,1,1,1,1,1,1,1,1,1,1,1,1,1,1,1,1,1,1,0,0,0,1,1,1,1,1,1,1,0,1,1,1,1,1,1,1,1]",1,,,,,,stimuli/grey_butterfly.png,stimuli/white_butterfly.png,1,stimuli/red_flower.png,stimuli/green_flower.png,stimuli/yellow_flower.png,stimuli/blue_flower.png,up,stimuli/objects/shower.jpg,0,3,stimuli/grey_butterfly.png,1,8,2021-01-15_16h18.19.271,premce3DEU_ses-02_part-01_label-phase1,2020.1.2,MacIntel,60,,,,,down,0,1.446,0,21,21,21,1,,,,,,,,
,,,,,1,"[0,1,1,1,1,1,1,1,1,1,1,1,1,1,1,1,1,1,1,1,1,1,1,1,1,1,1,1,1,1,1,1,1,1,1,1,1,1,1,1,1,1,1,1,1,1,1,1,1,1,1,0,0,0,1,1,1,1,1,1,1,0,1,1,1,1,1,1,1,1]",1,,,,,,stimuli/white_butterfly.png,stimuli/grey_butterfly.png,1,stimuli/yellow_flower.png,stimuli/blue_flower.png,stimuli/green_flower.png,stimuli/red_flower.png,down,stimuli/objects/hulahoop.jpg,1,3,stimuli/white_butterfly.png,1,8,2021-01-15_16h18.19.271,premce3DEU_ses-02_part-01_label-phase1,2020.1.2,MacIntel,60,,,,,down,1,0.857,0,22,22,22,1,,,,,,,,
,,,,,1,"[0,1,1,1,1,1,1,1,1,1,1,1,1,1,1,1,1,1,1,1,1,1,1,1,1,1,1,1,1,1,1,1,1,1,1,1,1,1,1,1,1,1,1,1,1,1,1,1,1,1,1,0,0,0,1,1,1,1,1,1,1,0,1,1,1,1,1,1,1,1,1]",1,,,,,,stimuli/grey_butterfly.png,stimuli/white_butterfly.png,1,stimuli/blue_flower.png,stimuli/red_flower.png,stimuli/yellow_flower.png,stimuli/green_flower.png,down,stimuli/objects/gps.jpg,1,3,stimuli/grey_butterfly.png,1,8,2021-01-15_16h18.19.271,premce3DEU_ses-02_part-01_label-phase1,2020.1.2,MacIntel,60,,,,,down,1,1.31,0,23,23,23,1,,,,,,,,
,,,,,1,"[0,1,1,1,1,1,1,1,1,1,1,1,1,1,1,1,1,1,1,1,1,1,1,1,1,1,1,1,1,1,1,1,1,1,1,1,1,1,1,1,1,1,1,1,1,1,1,1,1,1,1,0,0,0,1,1,1,1,1,1,1,0,1,1,1,1,1,1,1,1,1,1]",1,,,,,,stimuli/white_butterfly.png,stimuli/grey_butterfly.png,2,stimuli/green_flower.png,stimuli/red_flower.png,stimuli/yellow_flower.png,stimuli/blue_flower.png,down,stimuli/objects/treadmill.jpg,1,3,stimuli/grey_butterfly.png,1,8,2021-01-15_16h18.19.271,premce3DEU_ses-02_part-01_label-phase1,2020.1.2,MacIntel,60,,,,,down,1,0.802,0,24,24,24,1,,,,,,,,
,,,,,0,"[0,1,1,1,1,1,1,1,1,1,1,1,1,1,1,1,1,1,1,1,1,1,1,1,1,1,1,1,1,1,1,1,1,1,1,1,1,1,1,1,1,1,1,1,1,1,1,1,1,1,1,0,0,0,1,1,1,1,1,1,1,0,1,1,1,1,1,1,1,1,1,1,1]",1,,,,,,stimuli/grey_butterfly.png,stimuli/white_butterfly.png,2,stimuli/yellow_flower.png,stimuli/green_flower.png,stimuli/blue_flower.png,stimuli/red_flower.png,down,stimuli/objects/sausage.jpg,0,3,stimuli/white_butterfly.png,1,8,2021-01-15_16h18.19.271,premce3DEU_ses-02_part-01_label-phase1,2020.1.2,MacIntel,60,,,,,up,0,1.721,0,25,25,25,1,,,,,,,,
,,,,,0,"[0,1,1,1,1,1,1,1,1,1,1,1,1,1,1,1,1,1,1,1,1,1,1,1,1,1,1,1,1,1,1,1,1,1,1,1,1,1,1,1,1,1,1,1,1,1,1,1,1,1,1,0,0,0,1,1,1,1,1,1,1,0,1,1,1,1,1,1,1,1,1,1,1]",0,,,,,,stimuli/white_butterfly.png,stimuli/grey_butterfly.png,2,stimuli/blue_flower.png,stimuli/green_flower.png,stimuli/yellow_flower.png,stimuli/red_flower.png,left,stimuli/objects/barrel01.jpg,0,3,stimuli/grey_butterfly.png,1,8,2021-01-15_16h18.19.271,premce3DEU_ses-02_part-01_label-phase1,2020.1.2,MacIntel,60,,,,,,0,,0,26,26,26,1,,,,,,,,
,,,,,1,"[0,1,1,1,1,1,1,1,1,1,1,1,1,1,1,1,1,1,1,1,1,1,1,1,1,1,1,1,1,1,1,1,1,1,1,1,1,1,1,1,1,1,1,1,1,1,1,1,1,1,1,0,0,0,1,1,1,1,1,1,1,0,1,1,1,1,1,1,1,1,1,1,1]",1,,,,,,stimuli/grey_butterfly.png,stimuli/white_butterfly.png,1,stimuli/green_flower.png,stimuli/red_flower.png,stimuli/blue_flower.png,stimuli/yellow_flower.png,right,stimuli/objects/tie02.jpg,1,3,stimuli/grey_butterfly.png,1,8,2021-01-15_16h18.19.271,premce3DEU_ses-02_part-01_label-phase1,2020.1.2,MacIntel,60,,,,,right,1,0.702,0,27,27,27,1,,,,,,,,
,,,,,1,"[0,1,1,1,1,1,1,1,1,1,1,1,1,1,1,1,1,1,1,1,1,1,1,1,1,1,1,1,1,1,1,1,1,1,1,1,1,1,1,1,1,1,1,1,1,1,1,1,1,1,1,0,0,0,1,1,1,1,1,1,1,0,1,1,1,1,1,1,1,1,1,1,1,1]",1,,,,,,stimuli/white_butterfly.png,stimuli/grey_butterfly.png,1,stimuli/green_flower.png,stimuli/yellow_flower.png,stimuli/red_flower.png,stimuli/blue_flower.png,left,stimuli/objects/contactlens.jpg,1,3,stimuli/white_butterfly.png,1,8,2021-01-15_16h18.19.271,premce3DEU_ses-02_part-01_label-phase1,2020.1.2,MacIntel,60,,,,,left,1,0.899,0,28,28,28,1,,,,,,,,
,,,,,1,"[0,1,1,1,1,1,1,1,1,1,1,1,1,1,1,1,1,1,1,1,1,1,1,1,1,1,1,1,1,1,1,1,1,1,1,1,1,1,1,1,1,1,1,1,1,1,1,1,1,1,1,0,0,0,1,1,1,1,1,1,1,0,1,1,1,1,1,1,1,1,1,1,1,1,1]",1,,,,,,stimuli/white_butterfly.png,stimuli/grey_butterfly.png,1,stimuli/blue_flower.png,stimuli/yellow_flower.png,stimuli/green_flower.png,stimuli/red_flower.png,down,stimuli/objects/wheelchair.jpg,1,3,stimuli/white_butterfly.png,1,8,2021-01-15_16h18.19.271,premce3DEU_ses-02_part-01_label-phase1,2020.1.2,MacIntel,60,,,,,down,1,1.398,0,29,29,29,1,,,,,,,,
,,,,,1,"[0,1,1,1,1,1,1,1,1,1,1,1,1,1,1,1,1,1,1,1,1,1,1,1,1,1,1,1,1,1,1,1,1,1,1,1,1,1,1,1,1,1,1,1,1,1,1,1,1,1,1,0,0,0,1,1,1,1,1,1,1,0,1,1,1,1,1,1,1,1,1,1,1,1,1,1]",1,,,,,,stimuli/grey_butterfly.png,stimuli/white_butterfly.png,1,stimuli/red_flower.png,stimuli/yellow_flower.png,stimuli/blue_flower.png,stimuli/green_flower.png,up,stimuli/objects/cactus.jpg,1,3,stimuli/grey_butterfly.png,1,8,2021-01-15_16h18.19.271,premce3DEU_ses-02_part-01_label-phase1,2020.1.2,MacIntel,60,,,,,up,1,0.493,0,30,30,30,1,,,,,,,,
,,,,,1,"[0,1,1,1,1,1,1,1,1,1,1,1,1,1,1,1,1,1,1,1,1,1,1,1,1,1,1,1,1,1,1,1,1,1,1,1,1,1,1,1,1,1,1,1,1,1,1,1,1,1,1,0,0,0,1,1,1,1,1,1,1,0,1,1,1,1,1,1,1,1,1,1,1,1,1,1,1]",1,,,,,,stimuli/grey_butterfly.png,stimuli/white_butterfly.png,2,stimuli/green_flower.png,stimuli/red_flower.png,stimuli/blue_flower.png,stimuli/yellow_flower.png,left,stimuli/objects/weddingcake.jpg,1,3,stimuli/white_butterfly.png,1,8,2021-01-15_16h18.19.271,premce3DEU_ses-02_part-01_label-phase1,2020.1.2,MacIntel,60,,,,,left,1,0.775,0,31,31,31,1,,,,,,,,
,,,,,1,"[0,1,1,1,1,1,1,1,1,1,1,1,1,1,1,1,1,1,1,1,1,1,1,1,1,1,1,1,1,1,1,1,1,1,1,1,1,1,1,1,1,1,1,1,1,1,1,1,1,1,1,0,0,0,1,1,1,1,1,1,1,0,1,1,1,1,1,1,1,1,1,1,1,1,1,1,1,1]",1,,,,,,stimuli/white_butterfly.png,stimuli/grey_butterfly.png,1,stimuli/yellow_flower.png,stimuli/red_flower.png,stimuli/blue_flower.png,stimuli/green_flower.png,right,stimuli/objects/rockingchair.jpg,1,3,stimuli/white_butterfly.png,1,8,2021-01-15_16h18.19.271,premce3DEU_ses-02_part-01_label-phase1,2020.1.2,MacIntel,60,,,,,right,1,1.615,0,32,32,32,1,,,,,,,,
,,,,,1,"[0,1,1,1,1,1,1,1,1,1,1,1,1,1,1,1,1,1,1,1,1,1,1,1,1,1,1,1,1,1,1,1,1,1,1,1,1,1,1,1,1,1,1,1,1,1,1,1,1,1,1,0,0,0,1,1,1,1,1,1,1,0,1,1,1,1,1,1,1,1,1,1,1,1,1,1,1,1,1]",1,,,,,,stimuli/grey_butterfly.png,stimuli/white_butterfly.png,1,stimuli/green_flower.png,stimuli/red_flower.png,stimuli/yellow_flower.png,stimuli/blue_flower.png,down,stimuli/objects/dartboard.jpg,1,3,stimuli/grey_butterfly.png,1,8,2021-01-15_16h18.19.271,premce3DEU_ses-02_part-01_label-phase1,2020.1.2,MacIntel,60,,,,,down,1,1.944,0,33,33,33,1,,,,,,,,
,,,,,1,"[0,1,1,1,1,1,1,1,1,1,1,1,1,1,1,1,1,1,1,1,1,1,1,1,1,1,1,1,1,1,1,1,1,1,1,1,1,1,1,1,1,1,1,1,1,1,1,1,1,1,1,0,0,0,1,1,1,1,1,1,1,0,1,1,1,1,1,1,1,1,1,1,1,1,1,1,1,1,1,1]",1,,,,,,stimuli/grey_butterfly.png,stimuli/white_butterfly.png,2,stimuli/red_flower.png,stimuli/blue_flower.png,stimuli/yellow_flower.png,stimuli/green_flower.png,right,stimuli/objects/handbrush02.jpg,1,3,stimuli/white_butterfly.png,1,8,2021-01-15_16h18.19.271,premce3DEU_ses-02_part-01_label-phase1,2020.1.2,MacIntel,60,,,,,right,1,1.051,0,34,34,34,1,,,,,,,,
,,,,,1,"[0,1,1,1,1,1,1,1,1,1,1,1,1,1,1,1,1,1,1,1,1,1,1,1,1,1,1,1,1,1,1,1,1,1,1,1,1,1,1,1,1,1,1,1,1,1,1,1,1,1,1,0,0,0,1,1,1,1,1,1,1,0,1,1,1,1,1,1,1,1,1,1,1,1,1,1,1,1,1,1,1]",1,,,,,,stimuli/grey_butterfly.png,stimuli/white_butterfly.png,1,stimuli/blue_flower.png,stimuli/green_flower.png,stimuli/red_flower.png,stimuli/yellow_flower.png,right,stimuli/objects/battleaxe.jpg,1,3,stimuli/grey_butterfly.png,1,8,2021-01-15_16h18.19.271,premce3DEU_ses-02_part-01_label-phase1,2020.1.2,MacIntel,60,,,,,right,1,0.665,0,35,35,35,1,,,,,,,,
,,,,,1,"[0,1,1,1,1,1,1,1,1,1,1,1,1,1,1,1,1,1,1,1,1,1,1,1,1,1,1,1,1,1,1,1,1,1,1,1,1,1,1,1,1,1,1,1,1,1,1,1,1,1,1,0,0,0,1,1,1,1,1,1,1,0,1,1,1,1,1,1,1,1,1,1,1,1,1,1,1,1,1,1,1,1]",1,,,,,,stimuli/grey_butterfly.png,stimuli/white_butterfly.png,1,stimuli/blue_flower.png,stimuli/green_flower.png,stimuli/yellow_flower.png,stimuli/red_flower.png,down,stimuli/objects/cuttlefish.jpg,1,3,stimuli/grey_butterfly.png,1,8,2021-01-15_16h18.19.271,premce3DEU_ses-02_part-01_label-phase1,2020.1.2,MacIntel,60,,,,,down,1,1.587,0,36,36,36,1,,,,,,,,
,,,,,1,"[0,1,1,1,1,1,1,1,1,1,1,1,1,1,1,1,1,1,1,1,1,1,1,1,1,1,1,1,1,1,1,1,1,1,1,1,1,1,1,1,1,1,1,1,1,1,1,1,1,1,1,0,0,0,1,1,1,1,1,1,1,0,1,1,1,1,1,1,1,1,1,1,1,1,1,1,1,1,1,1,1,1,1]",1,,,,,,stimuli/grey_butterfly.png,stimuli/white_butterfly.png,1,stimuli/green_flower.png,stimuli/blue_flower.png,stimuli/red_flower.png,stimuli/yellow_flower.png,right,stimuli/objects/butterfly4.jpg,1,3,stimuli/grey_butterfly.png,1,8,2021-01-15_16h18.19.271,premce3DEU_ses-02_part-01_label-phase1,2020.1.2,MacIntel,60,,,,,right,1,1.006,0,37,37,37,1,,,,,,,,
,,,,,1,"[0,1,1,1,1,1,1,1,1,1,1,1,1,1,1,1,1,1,1,1,1,1,1,1,1,1,1,1,1,1,1,1,1,1,1,1,1,1,1,1,1,1,1,1,1,1,1,1,1,1,1,0,0,0,1,1,1,1,1,1,1,0,1,1,1,1,1,1,1,1,1,1,1,1,1,1,1,1,1,1,1,1,1,1]",1,,,,,,stimuli/grey_butterfly.png,stimuli/white_butterfly.png,2,stimuli/yellow_flower.png,stimuli/blue_flower.png,stimuli/green_flower.png,stimuli/red_flower.png,down,stimuli/objects/xylophone.jpg,1,3,stimuli/white_butterfly.png,1,8,2021-01-15_16h18.19.271,premce3DEU_ses-02_part-01_label-phase1,2020.1.2,MacIntel,60,,,,,down,1,1.078,0,38,38,38,1,,,,,,,,
,,,,,0,"[0,1,1,1,1,1,1,1,1,1,1,1,1,1,1,1,1,1,1,1,1,1,1,1,1,1,1,1,1,1,1,1,1,1,1,1,1,1,1,1,1,1,1,1,1,1,1,1,1,1,1,0,0,0,1,1,1,1,1,1,1,0,1,1,1,1,1,1,1,1,1,1,1,1,1,1,1,1,1,1,1,1,1,1,1]",1,,,,,,stimuli/white_butterfly.png,stimuli/grey_butterfly.png,1,stimuli/green_flower.png,stimuli/red_flower.png,stimuli/blue_flower.png,stimuli/yellow_flower.png,up,stimuli/objects/recyclingbin.jpg,0,3,stimuli/white_butterfly.png,1,8,2021-01-15_16h18.19.271,premce3DEU_ses-02_part-01_label-phase1,2020.1.2,MacIntel,60,,,,,left,0,0.864,0,39,39,39,1,,,,,,,,
,,,,,1,"[0,1,1,1,1,1,1,1,1,1,1,1,1,1,1,1,1,1,1,1,1,1,1,1,1,1,1,1,1,1,1,1,1,1,1,1,1,1,1,1,1,1,1,1,1,1,1,1,1,1,1,0,0,0,1,1,1,1,1,1,1,0,1,1,1,1,1,1,1,1,1,1,1,1,1,1,1,1,1,1,1,1,1,1,1]",1,,,,,,stimuli/grey_butterfly.png,stimuli/white_butterfly.png,1,stimuli/green_flower.png,stimuli/yellow_flower.png,stimuli/red_flower.png,stimuli/blue_flower.png,up,stimuli/objects/coffeemaker.jpg,1,3,stimuli/grey_butterfly.png,1,8,2021-01-15_16h18.19.271,premce3DEU_ses-02_part-01_label-phase1,2020.1.2,MacIntel,60,,,,,up,1,1.217,0,40,40,40,1,,,,,,,,
,,,,,1,"[0,1,1,1,1,1,1,1,1,1,1,1,1,1,1,1,1,1,1,1,1,1,1,1,1,1,1,1,1,1,1,1,1,1,1,1,1,1,1,1,1,1,1,1,1,1,1,1,1,1,1,0,0,0,1,1,1,1,1,1,1,0,1,1,1,1,1,1,1,1,1,1,1,1,1,1,1,1,1,1,1,1,1,1,1,1]",1,,,,,,stimuli/grey_butterfly.png,stimuli/white_butterfly.png,1,stimuli/red_flower.png,stimuli/green_flower.png,stimuli/blue_flower.png,stimuli/yellow_flower.png,right,stimuli/objects/bleachers.jpg,1,3,stimuli/grey_butterfly.png,1,8,2021-01-15_16h18.19.271,premce3DEU_ses-02_part-01_label-phase1,2020.1.2,MacIntel,60,,,,,right,1,1.929,0,41,41,41,1,,,,,,,,
,,,,,,,,,,,,,,,,,,,,,,,,,,8,2021-01-15_16h18.19.271,premce3DEU_ses-02_part-01_label-phase1,2020.1.2,MacIntel,60,,,,,,,,,,,,,0,1,1,1,1,condition_files/tasklistB1.csv,,
,,,,,0,"[0,1,1,1,1,1,1,1,1,1,1,1,1,1,1,1,1,1,1,1,1,1,1,1,1,1,1,1,1,1,1,1,1,1,1,1,1,1,1,1,1,1,1,1,1,1,1,1,1,1,1,0,0,0,1,1,1,1,1,1,1,0,1,1,1,1,1,1,1,1,1,1,1,1,1,1,1,1,1,1,1,1,1,1,1,1,1]",0,,,,,,stimuli/white_butterfly.png,stimuli/grey_butterfly.png,1,stimuli/yellow_flower.png,stimuli/blue_flower.png,stimuli/green_flower.png,stimuli/red_flower.png,left,stimuli/objects/windturbine.jpg,1,4,stimuli/white_butterfly.png,0,8,2021-01-15_16h18.19.271,premce3DEU_ses-02_part-01_label-phase1,2020.1.2,MacIntel,60,,,,,down,0,0.843,0,0,0,0,1,,,,,,,,
,,,,,0,"[0,1,1,1,1,1,1,1,1,1,1,1,1,1,1,1,1,1,1,1,1,1,1,1,1,1,1,1,1,1,1,1,1,1,1,1,1,1,1,1,1,1,1,1,1,1,1,1,1,1,1,0,0,0,1,1,1,1,1,1,1,0,1,1,1,1,1,1,1,1,1,1,1,1,1,1,1,1,1,1,1,1,1,1,1,1,1,0]",0,,,,,,stimuli/grey_butterfly.png,stimuli/white_butterfly.png,1,stimuli/red_flower.png,stimuli/yellow_flower.png,stimuli/green_flower.png,stimuli/blue_flower.png,right,stimuli/objects/seaturtle.jpg,1,4,stimuli/grey_butterfly.png,0,8,2021-01-15_16h18.19.271,premce3DEU_ses-02_part-01_label-phase1,2020.1.2,MacIntel,60,,,,,up,0,0.568,0,1,1,1,1,,,,,,,,
,,,,,0,"[0,1,1,1,1,1,1,1,1,1,1,1,1,1,1,1,1,1,1,1,1,1,1,1,1,1,1,1,1,1,1,1,1,1,1,1,1,1,1,1,1,1,1,1,1,1,1,1,1,1,1,0,0,0,1,1,1,1,1,1,1,0,1,1,1,1,1,1,1,1,1,1,1,1,1,1,1,1,1,1,1,1,1,1,1,1,1,0,0]",0,,,,,,stimuli/white_butterfly.png,stimuli/grey_butterfly.png,2,stimuli/blue_flower.png,stimuli/red_flower.png,stimuli/yellow_flower.png,stimuli/green_flower.png,left,stimuli/objects/cannon.jpg,1,4,stimuli/grey_butterfly.png,0,8,2021-01-15_16h18.19.271,premce3DEU_ses-02_part-01_label-phase1,2020.1.2,MacIntel,60,,,,,down,0,0.83,0,2,2,2,1,,,,,,,,
,,,,,0,"[0,1,1,1,1,1,1,1,1,1,1,1,1,1,1,1,1,1,1,1,1,1,1,1,1,1,1,1,1,1,1,1,1,1,1,1,1,1,1,1,1,1,1,1,1,1,1,1,1,1,1,0,0,0,1,1,1,1,1,1,1,0,1,1,1,1,1,1,1,1,1,1,1,1,1,1,1,1,1,1,1,1,1,1,1,1,1,0,0,0]",0,,,,,,stimuli/grey_butterfly.png,stimuli/white_butterfly.png,2,stimuli/blue_flower.png,stimuli/red_flower.png,stimuli/yellow_flower.png,stimuli/green_flower.png,down,stimuli/objects/stool01.jpg,1,4,stimuli/white_butterfly.png,0,8,2021-01-15_16h18.19.271,premce3DEU_ses-02_part-01_label-phase1,2020.1.2,MacIntel,60,,,,,right,0,1.332,0,3,3,3,1,,,,,,,,
,,,,,1,"[0,1,1,1,1,1,1,1,1,1,1,1,1,1,1,1,1,1,1,1,1,1,1,1,1,1,1,1,1,1,1,1,1,1,1,1,1,1,1,1,1,1,1,1,1,1,1,1,1,1,1,0,0,0,1,1,1,1,1,1,1,0,1,1,1,1,1,1,1,1,1,1,1,1,1,1,1,1,1,1,1,1,1,1,1,1,1,0,0,0,0]",1,,,,,,stimuli/white_butterfly.png,stimuli/grey_butterfly.png,1,stimuli/blue_flower.png,stimuli/green_flower.png,stimuli/yellow_flower.png,stimuli/red_flower.png,down,stimuli/objects/cruiseship.jpg,1,4,stimuli/white_butterfly.png,0,8,2021-01-15_16h18.19.271,premce3DEU_ses-02_part-01_label-phase1,2020.1.2,MacIntel,60,,,,,down,1,0.583,0,4,4,4,1,,,,,,,,
,,,,,1,"[0,1,1,1,1,1,1,1,1,1,1,1,1,1,1,1,1,1,1,1,1,1,1,1,1,1,1,1,1,1,1,1,1,1,1,1,1,1,1,1,1,1,1,1,1,1,1,1,1,1,1,0,0,0,1,1,1,1,1,1,1,0,1,1,1,1,1,1,1,1,1,1,1,1,1,1,1,1,1,1,1,1,1,1,1,1,1,0,0,0,0,1]",1,,,,,,stimuli/white_butterfly.png,stimuli/grey_butterfly.png,1,stimuli/red_flower.png,stimuli/blue_flower.png,stimuli/yellow_flower.png,stimuli/green_flower.png,down,stimuli/objects/escalator.jpg,1,4,stimuli/white_butterfly.png,0,8,2021-01-15_16h18.19.271,premce3DEU_ses-02_part-01_label-phase1,2020.1.2,MacIntel,60,,,,,down,1,0.622,0,5,5,5,1,,,,,,,,
,,,,,1,"[0,1,1,1,1,1,1,1,1,1,1,1,1,1,1,1,1,1,1,1,1,1,1,1,1,1,1,1,1,1,1,1,1,1,1,1,1,1,1,1,1,1,1,1,1,1,1,1,1,1,1,0,0,0,1,1,1,1,1,1,1,0,1,1,1,1,1,1,1,1,1,1,1,1,1,1,1,1,1,1,1,1,1,1,1,1,1,0,0,0,0,1,1]",1,,,,,,stimuli/grey_butterfly.png,stimuli/white_butterfly.png,2,stimuli/green_flower.png,stimuli/red_flower.png,stimuli/blue_flower.png,stimuli/yellow_flower.png,right,stimuli/objects/fluorescentlightbulb.jpg,1,4,stimuli/white_butterfly.png,0,8,2021-01-15_16h18.19.271,premce3DEU_ses-02_part-01_label-phase1,2020.1.2,MacIntel,60,,,,,right,1,0.53,0,6,6,6,1,,,,,,,,
,,,,,1,"[0,1,1,1,1,1,1,1,1,1,1,1,1,1,1,1,1,1,1,1,1,1,1,1,1,1,1,1,1,1,1,1,1,1,1,1,1,1,1,1,1,1,1,1,1,1,1,1,1,1,1,0,0,0,1,1,1,1,1,1,1,0,1,1,1,1,1,1,1,1,1,1,1,1,1,1,1,1,1,1,1,1,1,1,1,1,1,0,0,0,0,1,1,1]",1,,,,,,stimuli/white_butterfly.png,stimuli/grey_butterfly.png,2,stimuli/blue_flower.png,stimuli/yellow_flower.png,stimuli/green_flower.png,stimuli/red_flower.png,left,stimuli/objects/basketball01.jpg,1,4,stimuli/grey_butterfly.png,0,8,2021-01-15_16h18.19.271,premce3DEU_ses-02_part-01_label-phase1,2020.1.2,MacIntel,60,,,,,left,1,1.068,0,7,7,7,1,,,,,,,,
,,,,,1,"[0,1,1,1,1,1,1,1,1,1,1,1,1,1,1,1,1,1,1,1,1,1,1,1,1,1,1,1,1,1,1,1,1,1,1,1,1,1,1,1,1,1,1,1,1,1,1,1,1,1,1,0,0,0,1,1,1,1,1,1,1,0,1,1,1,1,1,1,1,1,1,1,1,1,1,1,1,1,1,1,1,1,1,1,1,1,1,0,0,0,0,1,1,1,1]",1,,,,,,stimuli/white_butterfly.png,stimuli/grey_butterfly.png,2,stimuli/red_flower.png,stimuli/green_flower.png,stimuli/blue_flower.png,stimuli/yellow_flower.png,down,stimuli/objects/canoepaddle02.jpg,1,4,stimuli/grey_butterfly.png,0,8,2021-01-15_16h18.19.271,premce3DEU_ses-02_part-01_label-phase1,2020.1.2,MacIntel,60,,,,,down,1,0.723,0,8,8,8,1,,,,,,,,
,,,,,0,"[0,1,1,1,1,1,1,1,1,1,1,1,1,1,1,1,1,1,1,1,1,1,1,1,1,1,1,1,1,1,1,1,1,1,1,1,1,1,1,1,1,1,1,1,1,1,1,1,1,1,1,0,0,0,1,1,1,1,1,1,1,0,1,1,1,1,1,1,1,1,1,1,1,1,1,1,1,1,1,1,1,1,1,1,1,1,1,0,0,0,0,1,1,1,1,1]",1,,,,,,stimuli/grey_butterfly.png,stimuli/white_butterfly.png,2,stimuli/blue_flower.png,stimuli/red_flower.png,stimuli/green_flower.png,stimuli/yellow_flower.png,left,stimuli/objects/handheldtelescope.jpg,0,4,stimuli/white_butterfly.png,0,8,2021-01-15_16h18.19.271,premce3DEU_ses-02_part-01_label-phase1,2020.1.2,MacIntel,60,,,,,right,0,0.854,0,9,9,9,1,,,,,,,,
,,,,,0,"[0,1,1,1,1,1,1,1,1,1,1,1,1,1,1,1,1,1,1,1,1,1,1,1,1,1,1,1,1,1,1,1,1,1,1,1,1,1,1,1,1,1,1,1,1,1,1,1,1,1,1,0,0,0,1,1,1,1,1,1,1,0,1,1,1,1,1,1,1,1,1,1,1,1,1,1,1,1,1,1,1,1,1,1,1,1,1,0,0,0,0,1,1,1,1,1]",1,,,,,,stimuli/grey_butterfly.png,stimuli/white_butterfly.png,1,stimuli/yellow_flower.png,stimuli/green_flower.png,stimuli/red_flower.png,stimuli/blue_flower.png,left,stimuli/objects/witchhat.jpg,0,4,stimuli/grey_butterfly.png,0,8,2021-01-15_16h18.19.271,premce3DEU_ses-02_part-01_label-phase1,2020.1.2,MacIntel,60,,,,,right,0,0.808,0,10,10,10,1,,,,,,,,
,,,,,1,"[0,1,1,1,1,1,1,1,1,1,1,1,1,1,1,1,1,1,1,1,1,1,1,1,1,1,1,1,1,1,1,1,1,1,1,1,1,1,1,1,1,1,1,1,1,1,1,1,1,1,1,0,0,0,1,1,1,1,1,1,1,0,1,1,1,1,1,1,1,1,1,1,1,1,1,1,1,1,1,1,1,1,1,1,1,1,1,0,0,0,0,1,1,1,1,1]",1,,,,,,stimuli/white_butterfly.png,stimuli/grey_butterfly.png,1,stimuli/green_flower.png,stimuli/yellow_flower.png,stimuli/red_flower.png,stimuli/blue_flower.png,up,stimuli/objects/stepladder.jpg,1,4,stimuli/white_butterfly.png,0,8,2021-01-15_16h18.19.271,premce3DEU_ses-02_part-01_label-phase1,2020.1.2,MacIntel,60,,,,,up,1,1.107,0,11,11,11,1,,,,,,,,
,,,,,1,"[0,1,1,1,1,1,1,1,1,1,1,1,1,1,1,1,1,1,1,1,1,1,1,1,1,1,1,1,1,1,1,1,1,1,1,1,1,1,1,1,1,1,1,1,1,1,1,1,1,1,1,0,0,0,1,1,1,1,1,1,1,0,1,1,1,1,1,1,1,1,1,1,1,1,1,1,1,1,1,1,1,1,1,1,1,1,1,0,0,0,0,1,1,1,1,1,1]",1,,,,,,stimuli/grey_butterfly.png,stimuli/white_butterfly.png,1,stimuli/blue_flower.png,stimuli/red_flower.png,stimuli/yellow_flower.png,stimuli/green_flower.png,left,stimuli/objects/donut.jpg,1,4,stimuli/grey_butterfly.png,0,8,2021-01-15_16h18.19.271,premce3DEU_ses-02_part-01_label-phase1,2020.1.2,MacIntel,60,,,,,left,1,0.596,0,12,12,12,1,,,,,,,,
,,,,,1,"[0,1,1,1,1,1,1,1,1,1,1,1,1,1,1,1,1,1,1,1,1,1,1,1,1,1,1,1,1,1,1,1,1,1,1,1,1,1,1,1,1,1,1,1,1,1,1,1,1,1,1,0,0,0,1,1,1,1,1,1,1,0,1,1,1,1,1,1,1,1,1,1,1,1,1,1,1,1,1,1,1,1,1,1,1,1,1,0,0,0,0,1,1,1,1,1,1,1]",1,,,,,,stimuli/grey_butterfly.png,stimuli/white_butterfly.png,2,stimuli/red_flower.png,stimuli/green_flower.png,stimuli/blue_flower.png,stimuli/yellow_flower.png,right,stimuli/objects/tulip02.jpg,1,4,stimuli/white_butterfly.png,0,8,2021-01-15_16h18.19.271,premce3DEU_ses-02_part-01_label-phase1,2020.1.2,MacIntel,60,,,,,right,1,0.509,0,13,13,13,1,,,,,,,,
,,,,,1,"[0,1,1,1,1,1,1,1,1,1,1,1,1,1,1,1,1,1,1,1,1,1,1,1,1,1,1,1,1,1,1,1,1,1,1,1,1,1,1,1,1,1,1,1,1,1,1,1,1,1,1,0,0,0,1,1,1,1,1,1,1,0,1,1,1,1,1,1,1,1,1,1,1,1,1,1,1,1,1,1,1,1,1,1,1,1,1,0,0,0,0,1,1,1,1,1,1,1,1]",1,,,,,,stimuli/white_butterfly.png,stimuli/grey_butterfly.png,2,stimuli/blue_flower.png,stimuli/green_flower.png,stimuli/red_flower.png,stimuli/yellow_flower.png,left,stimuli/objects/pirateflag.jpg,1,4,stimuli/grey_butterfly.png,0,8,2021-01-15_16h18.19.271,premce3DEU_ses-02_part-01_label-phase1,2020.1.2,MacIntel,60,,,,,left,1,1.568,0,14,14,14,1,,,,,,,,
,,,,,1,"[0,1,1,1,1,1,1,1,1,1,1,1,1,1,1,1,1,1,1,1,1,1,1,1,1,1,1,1,1,1,1,1,1,1,1,1,1,1,1,1,1,1,1,1,1,1,1,1,1,1,1,0,0,0,1,1,1,1,1,1,1,0,1,1,1,1,1,1,1,1,1,1,1,1,1,1,1,1,1,1,1,1,1,1,1,1,1,0,0,0,0,1,1,1,1,1,1,1,1,1]",1,,,,,,stimuli/white_butterfly.png,stimuli/grey_butterfly.png,2,stimuli/yellow_flower.png,stimuli/blue_flower.png,stimuli/red_flower.png,stimuli/green_flower.png,up,stimuli/objects/waterfountain02.jpg,1,4,stimuli/grey_butterfly.png,0,8,2021-01-15_16h18.19.271,premce3DEU_ses-02_part-01_label-phase1,2020.1.2,MacIntel,60,,,,,up,1,1.844,0,15,15,15,1,,,,,,,,
,,,,,0,"[0,1,1,1,1,1,1,1,1,1,1,1,1,1,1,1,1,1,1,1,1,1,1,1,1,1,1,1,1,1,1,1,1,1,1,1,1,1,1,1,1,1,1,1,1,1,1,1,1,1,1,0,0,0,1,1,1,1,1,1,1,0,1,1,1,1,1,1,1,1,1,1,1,1,1,1,1,1,1,1,1,1,1,1,1,1,1,0,0,0,0,1,1,1,1,1,1,1,1,1,1]",1,,,,,,stimuli/grey_butterfly.png,stimuli/white_butterfly.png,1,stimuli/blue_flower.png,stimuli/yellow_flower.png,stimuli/red_flower.png,stimuli/green_flower.png,down,stimuli/objects/butterfly3.jpg,0,4,stimuli/grey_butterfly.png,0,8,2021-01-15_16h18.19.271,premce3DEU_ses-02_part-01_label-phase1,2020.1.2,MacIntel,60,,,,,left,0,0.642,0,16,16,16,1,,,,,,,,
,,,,,0,"[0,1,1,1,1,1,1,1,1,1,1,1,1,1,1,1,1,1,1,1,1,1,1,1,1,1,1,1,1,1,1,1,1,1,1,1,1,1,1,1,1,1,1,1,1,1,1,1,1,1,1,0,0,0,1,1,1,1,1,1,1,0,1,1,1,1,1,1,1,1,1,1,1,1,1,1,1,1,1,1,1,1,1,1,1,1,1,0,0,0,0,1,1,1,1,1,1,1,1,1,1]",1,,,,,,stimuli/grey_butterfly.png,stimuli/white_butterfly.png,2,stimuli/yellow_flower.png,stimuli/blue_flower.png,stimuli/green_flower.png,stimuli/red_flower.png,right,stimuli/objects/salmon.jpg,0,4,stimuli/white_butterfly.png,0,8,2021-01-15_16h18.19.271,premce3DEU_ses-02_part-01_label-phase1,2020.1.2,MacIntel,60,,,,,left,0,1.014,0,17,17,17,1,,,,,,,,
,,,,,1,"[0,1,1,1,1,1,1,1,1,1,1,1,1,1,1,1,1,1,1,1,1,1,1,1,1,1,1,1,1,1,1,1,1,1,1,1,1,1,1,1,1,1,1,1,1,1,1,1,1,1,1,0,0,0,1,1,1,1,1,1,1,0,1,1,1,1,1,1,1,1,1,1,1,1,1,1,1,1,1,1,1,1,1,1,1,1,1,0,0,0,0,1,1,1,1,1,1,1,1,1,1]",1,,,,,,stimuli/white_butterfly.png,stimuli/grey_butterfly.png,2,stimuli/yellow_flower.png,stimuli/green_flower.png,stimuli/red_flower.png,stimuli/blue_flower.png,right,stimuli/objects/tent.jpg,1,4,stimuli/grey_butterfly.png,0,8,2021-01-15_16h18.19.271,premce3DEU_ses-02_part-01_label-phase1,2020.1.2,MacIntel,60,,,,,right,1,1.41,0,18,18,18,1,,,,,,,,
,,,,,1,"[0,1,1,1,1,1,1,1,1,1,1,1,1,1,1,1,1,1,1,1,1,1,1,1,1,1,1,1,1,1,1,1,1,1,1,1,1,1,1,1,1,1,1,1,1,1,1,1,1,1,1,0,0,0,1,1,1,1,1,1,1,0,1,1,1,1,1,1,1,1,1,1,1,1,1,1,1,1,1,1,1,1,1,1,1,1,1,0,0,0,0,1,1,1,1,1,1,1,1,1,1,1]",1,,,,,,stimuli/white_butterfly.png,stimuli/grey_butterfly.png,1,stimuli/green_flower.png,stimuli/red_flower.png,stimuli/blue_flower.png,stimuli/yellow_flower.png,right,stimuli/objects/barn.jpg,1,4,stimuli/white_butterfly.png,0,8,2021-01-15_16h18.19.271,premce3DEU_ses-02_part-01_label-phase1,2020.1.2,MacIntel,60,,,,,right,1,0.526,0,19,19,19,1,,,,,,,,
,,,,,0,"[0,1,1,1,1,1,1,1,1,1,1,1,1,1,1,1,1,1,1,1,1,1,1,1,1,1,1,1,1,1,1,1,1,1,1,1,1,1,1,1,1,1,1,1,1,1,1,1,1,1,1,0,0,0,1,1,1,1,1,1,1,0,1,1,1,1,1,1,1,1,1,1,1,1,1,1,1,1,1,1,1,1,1,1,1,1,1,0,0,0,0,1,1,1,1,1,1,1,1,1,1,1,1]",1,,,,,,stimuli/white_butterfly.png,stimuli/grey_butterfly.png,2,stimuli/blue_flower.png,stimuli/green_flower.png,stimuli/yellow_flower.png,stimuli/red_flower.png,up,stimuli/objects/crown.jpg,0,4,stimuli/grey_butterfly.png,0,8,2021-01-15_16h18.19.271,premce3DEU_ses-02_part-01_label-phase1,2020.1.2,MacIntel,60,,,,,left,0,0.857,0,20,20,20,1,,,,,,,,
,,,,,1,"[0,1,1,1,1,1,1,1,1,1,1,1,1,1,1,1,1,1,1,1,1,1,1,1,1,1,1,1,1,1,1,1,1,1,1,1,1,1,1,1,1,1,1,1,1,1,1,1,1,1,1,0,0,0,1,1,1,1,1,1,1,0,1,1,1,1,1,1,1,1,1,1,1,1,1,1,1,1,1,1,1,1,1,1,1,1,1,0,0,0,0,1,1,1,1,1,1,1,1,1,1,1,1]",1,,,,,,stimuli/white_butterfly.png,stimuli/grey_butterfly.png,2,stimuli/yellow_flower.png,stimuli/red_flower.png,stimuli/green_flower.png,stimuli/blue_flower.png,right,stimuli/objects/seagull.jpg,1,4,stimuli/grey_butterfly.png,1,8,2021-01-15_16h18.19.271,premce3DEU_ses-02_part-01_label-phase1,2020.1.2,MacIntel,60,,,,,right,1,0.728,0,21,21,21,1,,,,,,,,
,,,,,1,"[0,1,1,1,1,1,1,1,1,1,1,1,1,1,1,1,1,1,1,1,1,1,1,1,1,1,1,1,1,1,1,1,1,1,1,1,1,1,1,1,1,1,1,1,1,1,1,1,1,1,1,0,0,0,1,1,1,1,1,1,1,0,1,1,1,1,1,1,1,1,1,1,1,1,1,1,1,1,1,1,1,1,1,1,1,1,1,0,0,0,0,1,1,1,1,1,1,1,1,1,1,1,1,1]",1,,,,,,stimuli/grey_butterfly.png,stimuli/white_butterfly.png,1,stimuli/red_flower.png,stimuli/blue_flower.png,stimuli/green_flower.png,stimuli/yellow_flower.png,up,stimuli/objects/bathtub.jpg,1,4,stimuli/grey_butterfly.png,1,8,2021-01-15_16h18.19.271,premce3DEU_ses-02_part-01_label-phase1,2020.1.2,MacIntel,60,,,,,up,1,0.642,0,22,22,22,1,,,,,,,,
,,,,,1,"[0,1,1,1,1,1,1,1,1,1,1,1,1,1,1,1,1,1,1,1,1,1,1,1,1,1,1,1,1,1,1,1,1,1,1,1,1,1,1,1,1,1,1,1,1,1,1,1,1,1,1,0,0,0,1,1,1,1,1,1,1,0,1,1,1,1,1,1,1,1,1,1,1,1,1,1,1,1,1,1,1,1,1,1,1,1,1,0,0,0,0,1,1,1,1,1,1,1,1,1,1,1,1,1,1]",1,,,,,,stimuli/white_butterfly.png,stimuli/grey_butterfly.png,1,stimuli/red_flower.png,stimuli/green_flower.png,stimuli/blue_flower.png,stimuli/yellow_flower.png,right,stimuli/objects/brownsugar.jpg,1,4,stimuli/white_butterfly.png,1,8,2021-01-15_16h18.19.271,premce3DEU_ses-02_part-01_label-phase1,2020.1.2,MacIntel,60,,,,,right,1,2.065,0,23,23,23,1,,,,,,,,
,,,,,1,"[0,1,1,1,1,1,1,1,1,1,1,1,1,1,1,1,1,1,1,1,1,1,1,1,1,1,1,1,1,1,1,1,1,1,1,1,1,1,1,1,1,1,1,1,1,1,1,1,1,1,1,0,0,0,1,1,1,1,1,1,1,0,1,1,1,1,1,1,1,1,1,1,1,1,1,1,1,1,1,1,1,1,1,1,1,1,1,0,0,0,0,1,1,1,1,1,1,1,1,1,1,1,1,1,1,1]",1,,,,,,stimuli/white_butterfly.png,stimuli/grey_butterfly.png,2,stimuli/blue_flower.png,stimuli/red_flower.png,stimuli/green_flower.png,stimuli/yellow_flower.png,left,stimuli/objects/pumpkin.jpg,1,4,stimuli/grey_butterfly.png,1,8,2021-01-15_16h18.19.271,premce3DEU_ses-02_part-01_label-phase1,2020.1.2,MacIntel,60,,,,,left,1,0.876,0,24,24,24,1,,,,,,,,
,,,,,1,"[0,1,1,1,1,1,1,1,1,1,1,1,1,1,1,1,1,1,1,1,1,1,1,1,1,1,1,1,1,1,1,1,1,1,1,1,1,1,1,1,1,1,1,1,1,1,1,1,1,1,1,0,0,0,1,1,1,1,1,1,1,0,1,1,1,1,1,1,1,1,1,1,1,1,1,1,1,1,1,1,1,1,1,1,1,1,1,0,0,0,0,1,1,1,1,1,1,1,1,1,1,1,1,1,1,1,1]",1,,,,,,stimuli/grey_butterfly.png,stimuli/white_butterfly.png,1,stimuli/yellow_flower.png,stimuli/red_flower.png,stimuli/green_flower.png,stimuli/blue_flower.png,right,stimuli/objects/trophy01.jpg,1,4,stimuli/grey_butterfly.png,1,8,2021-01-15_16h18.19.271,premce3DEU_ses-02_part-01_label-phase1,2020.1.2,MacIntel,60,,,,,right,1,0.748,0,25,25,25,1,,,,,,,,
,,,,,1,"[0,1,1,1,1,1,1,1,1,1,1,1,1,1,1,1,1,1,1,1,1,1,1,1,1,1,1,1,1,1,1,1,1,1,1,1,1,1,1,1,1,1,1,1,1,1,1,1,1,1,1,0,0,0,1,1,1,1,1,1,1,0,1,1,1,1,1,1,1,1,1,1,1,1,1,1,1,1,1,1,1,1,1,1,1,1,1,0,0,0,0,1,1,1,1,1,1,1,1,1,1,1,1,1,1,1,1,1]",1,,,,,,stimuli/grey_butterfly.png,stimuli/white_butterfly.png,1,stimuli/red_flower.png,stimuli/green_flower.png,stimuli/blue_flower.png,stimuli/yellow_flower.png,down,stimuli/objects/horse.jpg,1,4,stimuli/grey_butterfly.png,1,8,2021-01-15_16h18.19.271,premce3DEU_ses-02_part-01_label-phase1,2020.1.2,MacIntel,60,,,,,down,1,1.521,0,26,26,26,1,,,,,,,,
,,,,,1,"[0,1,1,1,1,1,1,1,1,1,1,1,1,1,1,1,1,1,1,1,1,1,1,1,1,1,1,1,1,1,1,1,1,1,1,1,1,1,1,1,1,1,1,1,1,1,1,1,1,1,1,0,0,0,1,1,1,1,1,1,1,0,1,1,1,1,1,1,1,1,1,1,1,1,1,1,1,1,1,1,1,1,1,1,1,1,1,0,0,0,0,1,1,1,1,1,1,1,1,1,1,1,1,1,1,1,1,1,1]",1,,,,,,stimuli/white_butterfly.png,stimuli/grey_butterfly.png,1,stimuli/red_flower.png,stimuli/yellow_flower.png,stimuli/blue_flower.png,stimuli/green_flower.png,up,stimuli/objects/jackrabbit.jpg,1,4,stimuli/white_butterfly.png,1,8,2021-01-15_16h18.19.271,premce3DEU_ses-02_part-01_label-phase1,2020.1.2,MacIntel,60,,,,,up,1,0.56,0,27,27,27,1,,,,,,,,
,,,,,1,"[0,1,1,1,1,1,1,1,1,1,1,1,1,1,1,1,1,1,1,1,1,1,1,1,1,1,1,1,1,1,1,1,1,1,1,1,1,1,1,1,1,1,1,1,1,1,1,1,1,1,1,0,0,0,1,1,1,1,1,1,1,0,1,1,1,1,1,1,1,1,1,1,1,1,1,1,1,1,1,1,1,1,1,1,1,1,1,0,0,0,0,1,1,1,1,1,1,1,1,1,1,1,1,1,1,1,1,1,1,1]",1,,,,,,stimuli/grey_butterfly.png,stimuli/white_butterfly.png,2,stimuli/green_flower.png,stimuli/yellow_flower.png,stimuli/red_flower.png,stimuli/blue_flower.png,up,stimuli/objects/jaguar.jpg,1,4,stimuli/white_butterfly.png,1,8,2021-01-15_16h18.19.271,premce3DEU_ses-02_part-01_label-phase1,2020.1.2,MacIntel,60,,,,,up,1,1.042,0,28,28,28,1,,,,,,,,
,,,,,1,"[0,1,1,1,1,1,1,1,1,1,1,1,1,1,1,1,1,1,1,1,1,1,1,1,1,1,1,1,1,1,1,1,1,1,1,1,1,1,1,1,1,1,1,1,1,1,1,1,1,1,1,0,0,0,1,1,1,1,1,1,1,0,1,1,1,1,1,1,1,1,1,1,1,1,1,1,1,1,1,1,1,1,1,1,1,1,1,0,0,0,0,1,1,1,1,1,1,1,1,1,1,1,1,1,1,1,1,1,1,1,1]",1,,,,,,stimuli/white_butterfly.png,stimuli/grey_butterfly.png,1,stimuli/yellow_flower.png,stimuli/green_flower.png,stimuli/red_flower.png,stimuli/blue_flower.png,left,stimuli/objects/trafficlight.jpg,1,4,stimuli/white_butterfly.png,1,8,2021-01-15_16h18.19.271,premce3DEU_ses-02_part-01_label-phase1,2020.1.2,MacIntel,60,,,,,left,1,1.577,0,29,29,29,1,,,,,,,,
,,,,,1,"[0,1,1,1,1,1,1,1,1,1,1,1,1,1,1,1,1,1,1,1,1,1,1,1,1,1,1,1,1,1,1,1,1,1,1,1,1,1,1,1,1,1,1,1,1,1,1,1,1,1,1,0,0,0,1,1,1,1,1,1,1,0,1,1,1,1,1,1,1,1,1,1,1,1,1,1,1,1,1,1,1,1,1,1,1,1,1,0,0,0,0,1,1,1,1,1,1,1,1,1,1,1,1,1,1,1,1,1,1,1,1,1]",1,,,,,,stimuli/white_butterfly.png,stimuli/grey_butterfly.png,1,stimuli/blue_flower.png,stimuli/green_flower.png,stimuli/red_flower.png,stimuli/yellow_flower.png,right,stimuli/objects/communitymailbox.jpg,1,4,stimuli/white_butterfly.png,1,8,2021-01-15_16h18.19.271,premce3DEU_ses-02_part-01_label-phase1,2020.1.2,MacIntel,60,,,,,right,1,0.909,0,30,30,30,1,,,,,,,,
,,,,,0,"[0,1,1,1,1,1,1,1,1,1,1,1,1,1,1,1,1,1,1,1,1,1,1,1,1,1,1,1,1,1,1,1,1,1,1,1,1,1,1,1,1,1,1,1,1,1,1,1,1,1,1,0,0,0,1,1,1,1,1,1,1,0,1,1,1,1,1,1,1,1,1,1,1,1,1,1,1,1,1,1,1,1,1,1,1,1,1,0,0,0,0,1,1,1,1,1,1,1,1,1,1,1,1,1,1,1,1,1,1,1,1,1,1]",1,,,,,,stimuli/white_butterfly.png,stimuli/grey_butterfly.png,1,stimuli/green_flower.png,stimuli/red_flower.png,stimuli/yellow_flower.png,stimuli/blue_flower.png,left,stimuli/objects/table01.jpg,0,4,stimuli/white_butterfly.png,1,8,2021-01-15_16h18.19.271,premce3DEU_ses-02_part-01_label-phase1,2020.1.2,MacIntel,60,,,,,down,0,1.198,0,31,31,31,1,,,,,,,,
,,,,,1,"[0,1,1,1,1,1,1,1,1,1,1,1,1,1,1,1,1,1,1,1,1,1,1,1,1,1,1,1,1,1,1,1,1,1,1,1,1,1,1,1,1,1,1,1,1,1,1,1,1,1,1,0,0,0,1,1,1,1,1,1,1,0,1,1,1,1,1,1,1,1,1,1,1,1,1,1,1,1,1,1,1,1,1,1,1,1,1,0,0,0,0,1,1,1,1,1,1,1,1,1,1,1,1,1,1,1,1,1,1,1,1,1,1]",1,,,,,,stimuli/grey_butterfly.png,stimuli/white_butterfly.png,2,stimuli/blue_flower.png,stimuli/green_flower.png,stimuli/yellow_flower.png,stimuli/red_flower.png,down,stimuli/objects/dromedary.jpg,1,4,stimuli/white_butterfly.png,1,8,2021-01-15_16h18.19.271,premce3DEU_ses-02_part-01_label-phase1,2020.1.2,MacIntel,60,,,,,down,1,0.545,0,32,32,32,1,,,,,,,,
,,,,,1,"[0,1,1,1,1,1,1,1,1,1,1,1,1,1,1,1,1,1,1,1,1,1,1,1,1,1,1,1,1,1,1,1,1,1,1,1,1,1,1,1,1,1,1,1,1,1,1,1,1,1,1,0,0,0,1,1,1,1,1,1,1,0,1,1,1,1,1,1,1,1,1,1,1,1,1,1,1,1,1,1,1,1,1,1,1,1,1,0,0,0,0,1,1,1,1,1,1,1,1,1,1,1,1,1,1,1,1,1,1,1,1,1,1,1]",1,,,,,,stimuli/grey_butterfly.png,stimuli/white_butterfly.png,2,stimuli/yellow_flower.png,stimuli/green_flower.png,stimuli/blue_flower.png,stimuli/red_flower.png,left,stimuli/objects/duck01.jpg,1,4,stimuli/white_butterfly.png,1,8,2021-01-15_16h18.19.271,premce3DEU_ses-02_part-01_label-phase1,2020.1.2,MacIntel,60,,,,,left,1,0.611,0,33,33,33,1,,,,,,,,
,,,,,1,"[0,1,1,1,1,1,1,1,1,1,1,1,1,1,1,1,1,1,1,1,1,1,1,1,1,1,1,1,1,1,1,1,1,1,1,1,1,1,1,1,1,1,1,1,1,1,1,1,1,1,1,0,0,0,1,1,1,1,1,1,1,0,1,1,1,1,1,1,1,1,1,1,1,1,1,1,1,1,1,1,1,1,1,1,1,1,1,0,0,0,0,1,1,1,1,1,1,1,1,1,1,1,1,1,1,1,1,1,1,1,1,1,1,1,1]",1,,,,,,stimuli/white_butterfly.png,stimuli/grey_butterfly.png,2,stimuli/green_flower.png,stimuli/blue_flower.png,stimuli/yellow_flower.png,stimuli/red_flower.png,up,stimuli/objects/soccerball.jpg,1,4,stimuli/grey_butterfly.png,1,8,2021-01-15_16h18.19.271,premce3DEU_ses-02_part-01_label-phase1,2020.1.2,MacIntel,60,,,,,up,1,1.145,0,34,34,34,1,,,,,,,,
,,,,,1,"[0,1,1,1,1,1,1,1,1,1,1,1,1,1,1,1,1,1,1,1,1,1,1,1,1,1,1,1,1,1,1,1,1,1,1,1,1,1,1,1,1,1,1,1,1,1,1,1,1,1,1,0,0,0,1,1,1,1,1,1,1,0,1,1,1,1,1,1,1,1,1,1,1,1,1,1,1,1,1,1,1,1,1,1,1,1,1,0,0,0,0,1,1,1,1,1,1,1,1,1,1,1,1,1,1,1,1,1,1,1,1,1,1,1,1,1]",1,,,,,,stimuli/grey_butterfly.png,stimuli/white_butterfly.png,2,stimuli/yellow_flower.png,stimuli/red_flower.png,stimuli/green_flower.png,stimuli/blue_flower.png,left,stimuli/objects/butterfly2.jpg,1,4,stimuli/white_butterfly.png,1,8,2021-01-15_16h18.19.271,premce3DEU_ses-02_part-01_label-phase1,2020.1.2,MacIntel,60,,,,,left,1,1.223,0,35,35,35,1,,,,,,,,
,,,,,1,"[0,1,1,1,1,1,1,1,1,1,1,1,1,1,1,1,1,1,1,1,1,1,1,1,1,1,1,1,1,1,1,1,1,1,1,1,1,1,1,1,1,1,1,1,1,1,1,1,1,1,1,0,0,0,1,1,1,1,1,1,1,0,1,1,1,1,1,1,1,1,1,1,1,1,1,1,1,1,1,1,1,1,1,1,1,1,1,0,0,0,0,1,1,1,1,1,1,1,1,1,1,1,1,1,1,1,1,1,1,1,1,1,1,1,1,1,1]",1,,,,,,stimuli/grey_butterfly.png,stimuli/white_butterfly.png,2,stimuli/yellow_flower.png,stimuli/blue_flower.png,stimuli/red_flower.png,stimuli/green_flower.png,left,stimuli/objects/football.jpg,1,4,stimuli/white_butterfly.png,1,8,2021-01-15_16h18.19.271,premce3DEU_ses-02_part-01_label-phase1,2020.1.2,MacIntel,60,,,,,left,1,0.502,0,36,36,36,1,,,,,,,,
,,,,,0,"[0,1,1,1,1,1,1,1,1,1,1,1,1,1,1,1,1,1,1,1,1,1,1,1,1,1,1,1,1,1,1,1,1,1,1,1,1,1,1,1,1,1,1,1,1,1,1,1,1,1,1,0,0,0,1,1,1,1,1,1,1,0,1,1,1,1,1,1,1,1,1,1,1,1,1,1,1,1,1,1,1,1,1,1,1,1,1,0,0,0,0,1,1,1,1,1,1,1,1,1,1,1,1,1,1,1,1,1,1,1,1,1,1,1,1,1,1,1]",0,,,,,,stimuli/white_butterfly.png,stimuli/grey_butterfly.png,2,stimuli/red_flower.png,stimuli/yellow_flower.png,stimuli/green_flower.png,stimuli/blue_flower.png,right,stimuli/objects/polarbear.jpg,1,4,stimuli/grey_butterfly.png,1,8,2021-01-15_16h18.19.271,premce3DEU_ses-02_part-01_label-phase1,2020.1.2,MacIntel,60,,,,,,0,,0,37,37,37,1,,,,,,,,
,,,,,1,"[0,1,1,1,1,1,1,1,1,1,1,1,1,1,1,1,1,1,1,1,1,1,1,1,1,1,1,1,1,1,1,1,1,1,1,1,1,1,1,1,1,1,1,1,1,1,1,1,1,1,1,0,0,0,1,1,1,1,1,1,1,0,1,1,1,1,1,1,1,1,1,1,1,1,1,1,1,1,1,1,1,1,1,1,1,1,1,0,0,0,0,1,1,1,1,1,1,1,1,1,1,1,1,1,1,1,1,1,1,1,1,1,1,1,1,1,1,1,0]",1,,,,,,stimuli/grey_butterfly.png,stimuli/white_butterfly.png,2,stimuli/blue_flower.png,stimuli/green_flower.png,stimuli/red_flower.png,stimuli/yellow_flower.png,right,stimuli/objects/monarchbutterfly.jpg,1,4,stimuli/white_butterfly.png,1,8,2021-01-15_16h18.19.271,premce3DEU_ses-02_part-01_label-phase1,2020.1.2,MacIntel,60,,,,,right,1,0.629,0,38,38,38,1,,,,,,,,
,,,,,1,"[0,1,1,1,1,1,1,1,1,1,1,1,1,1,1,1,1,1,1,1,1,1,1,1,1,1,1,1,1,1,1,1,1,1,1,1,1,1,1,1,1,1,1,1,1,1,1,1,1,1,1,0,0,0,1,1,1,1,1,1,1,0,1,1,1,1,1,1,1,1,1,1,1,1,1,1,1,1,1,1,1,1,1,1,1,1,1,0,0,0,0,1,1,1,1,1,1,1,1,1,1,1,1,1,1,1,1,1,1,1,1,1,1,1,1,1,1,1,0,1]",1,,,,,,stimuli/white_butterfly.png,stimuli/grey_butterfly.png,2,stimuli/green_flower.png,stimuli/yellow_flower.png,stimuli/red_flower.png,stimuli/blue_flower.png,right,stimuli/objects/cymbal.jpg,1,4,stimuli/grey_butterfly.png,1,8,2021-01-15_16h18.19.271,premce3DEU_ses-02_part-01_label-phase1,2020.1.2,MacIntel,60,,,,,right,1,1.287,0,39,39,39,1,,,,,,,,
,,,,,1,"[0,1,1,1,1,1,1,1,1,1,1,1,1,1,1,1,1,1,1,1,1,1,1,1,1,1,1,1,1,1,1,1,1,1,1,1,1,1,1,1,1,1,1,1,1,1,1,1,1,1,1,0,0,0,1,1,1,1,1,1,1,0,1,1,1,1,1,1,1,1,1,1,1,1,1,1,1,1,1,1,1,1,1,1,1,1,1,0,0,0,0,1,1,1,1,1,1,1,1,1,1,1,1,1,1,1,1,1,1,1,1,1,1,1,1,1,1,1,0,1,1]",1,,,,,,stimuli/grey_butterfly.png,stimuli/white_butterfly.png,1,stimuli/blue_flower.png,stimuli/yellow_flower.png,stimuli/green_flower.png,stimuli/red_flower.png,left,stimuli/objects/footballhelmet.jpg,1,4,stimuli/grey_butterfly.png,1,8,2021-01-15_16h18.19.271,premce3DEU_ses-02_part-01_label-phase1,2020.1.2,MacIntel,60,,,,,left,1,0.532,0,40,40,40,1,,,,,,,,
,,,,,1,"[0,1,1,1,1,1,1,1,1,1,1,1,1,1,1,1,1,1,1,1,1,1,1,1,1,1,1,1,1,1,1,1,1,1,1,1,1,1,1,1,1,1,1,1,1,1,1,1,1,1,1,0,0,0,1,1,1,1,1,1,1,0,1,1,1,1,1,1,1,1,1,1,1,1,1,1,1,1,1,1,1,1,1,1,1,1,1,0,0,0,0,1,1,1,1,1,1,1,1,1,1,1,1,1,1,1,1,1,1,1,1,1,1,1,1,1,1,1,0,1,1,1]",1,,,,,,stimuli/white_butterfly.png,stimuli/grey_butterfly.png,2,stimuli/red_flower.png,stimuli/yellow_flower.png,stimuli/blue_flower.png,stimuli/green_flower.png,down,stimuli/objects/panda.jpg,1,4,stimuli/grey_butterfly.png,1,8,2021-01-15_16h18.19.271,premce3DEU_ses-02_part-01_label-phase1,2020.1.2,MacIntel,60,,,,,down,1,1.317,0,41,41,41,1,,,,,,,,
,,,,,,,,,,,,,,,,,,,,,,,,,,8,2021-01-15_16h18.19.271,premce3DEU_ses-02_part-01_label-phase1,2020.1.2,MacIntel,60,,,,,,,,,,,,,0,2,2,2,1,condition_files/tasklistC1.csv,,
,,,,,0,"[0,1,1,1,1,1,1,1,1,1,1,1,1,1,1,1,1,1,1,1,1,1,1,1,1,1,1,1,1,1,1,1,1,1,1,1,1,1,1,1,1,1,1,1,1,1,1,1,1,1,1,0,0,0,1,1,1,1,1,1,1,0,1,1,1,1,1,1,1,1,1,1,1,1,1,1,1,1,1,1,1,1,1,1,1,1,1,0,0,0,0,1,1,1,1,1,1,1,1,1,1,1,1,1,1,1,1,1,1,1,1,1,1,1,1,1,1,1,0,1,1,1,1]",1,,,,,,stimuli/grey_butterfly.png,stimuli/white_butterfly.png,1,stimuli/red_flower.png,stimuli/green_flower.png,stimuli/yellow_flower.png,stimuli/blue_flower.png,down,stimuli/objects/giraffe.jpg,0,5,stimuli/grey_butterfly.png,0,8,2021-01-15_16h18.19.271,premce3DEU_ses-02_part-01_label-phase1,2020.1.2,MacIntel,60,,,,,right,0,0.633,0,0,0,0,1,,,,,,,,
,,,,,0,"[0,1,1,1,1,1,1,1,1,1,1,1,1,1,1,1,1,1,1,1,1,1,1,1,1,1,1,1,1,1,1,1,1,1,1,1,1,1,1,1,1,1,1,1,1,1,1,1,1,1,1,0,0,0,1,1,1,1,1,1,1,0,1,1,1,1,1,1,1,1,1,1,1,1,1,1,1,1,1,1,1,1,1,1,1,1,1,0,0,0,0,1,1,1,1,1,1,1,1,1,1,1,1,1,1,1,1,1,1,1,1,1,1,1,1,1,1,1,0,1,1,1,1]",0,,,,,,stimuli/white_butterfly.png,stimuli/grey_butterfly.png,1,stimuli/yellow_flower.png,stimuli/red_flower.png,stimuli/blue_flower.png,stimuli/green_flower.png,up,stimuli/objects/beerbottle.jpg,1,5,stimuli/white_butterfly.png,0,8,2021-01-15_16h18.19.271,premce3DEU_ses-02_part-01_label-phase1,2020.1.2,MacIntel,60,,,,,left,0,0.794,0,1,1,1,1,,,,,,,,
,,,,,0,"[0,1,1,1,1,1,1,1,1,1,1,1,1,1,1,1,1,1,1,1,1,1,1,1,1,1,1,1,1,1,1,1,1,1,1,1,1,1,1,1,1,1,1,1,1,1,1,1,1,1,1,0,0,0,1,1,1,1,1,1,1,0,1,1,1,1,1,1,1,1,1,1,1,1,1,1,1,1,1,1,1,1,1,1,1,1,1,0,0,0,0,1,1,1,1,1,1,1,1,1,1,1,1,1,1,1,1,1,1,1,1,1,1,1,1,1,1,1,0,1,1,1,1,0]",0,,,,,,stimuli/grey_butterfly.png,stimuli/white_butterfly.png,2,stimuli/green_flower.png,stimuli/yellow_flower.png,stimuli/red_flower.png,stimuli/blue_flower.png,down,stimuli/objects/eyepatch.jpg,1,5,stimuli/white_butterfly.png,0,8,2021-01-15_16h18.19.271,premce3DEU_ses-02_part-01_label-phase1,2020.1.2,MacIntel,60,,,,,right,0,0.966,0,2,2,2,1,,,,,,,,
,,,,,1,"[0,1,1,1,1,1,1,1,1,1,1,1,1,1,1,1,1,1,1,1,1,1,1,1,1,1,1,1,1,1,1,1,1,1,1,1,1,1,1,1,1,1,1,1,1,1,1,1,1,1,1,0,0,0,1,1,1,1,1,1,1,0,1,1,1,1,1,1,1,1,1,1,1,1,1,1,1,1,1,1,1,1,1,1,1,1,1,0,0,0,0,1,1,1,1,1,1,1,1,1,1,1,1,1,1,1,1,1,1,1,1,1,1,1,1,1,1,1,0,1,1,1,1,0,0]",1,,,,,,stimuli/grey_butterfly.png,stimuli/white_butterfly.png,2,stimuli/green_flower.png,stimuli/blue_flower.png,stimuli/red_flower.png,stimuli/yellow_flower.png,down,stimuli/objects/jellyfish.jpg,1,5,stimuli/white_butterfly.png,0,8,2021-01-15_16h18.19.271,premce3DEU_ses-02_part-01_label-phase1,2020.1.2,MacIntel,60,,,,,down,1,0.516,0,3,3,3,1,,,,,,,,
,,,,,1,"[0,1,1,1,1,1,1,1,1,1,1,1,1,1,1,1,1,1,1,1,1,1,1,1,1,1,1,1,1,1,1,1,1,1,1,1,1,1,1,1,1,1,1,1,1,1,1,1,1,1,1,0,0,0,1,1,1,1,1,1,1,0,1,1,1,1,1,1,1,1,1,1,1,1,1,1,1,1,1,1,1,1,1,1,1,1,1,0,0,0,0,1,1,1,1,1,1,1,1,1,1,1,1,1,1,1,1,1,1,1,1,1,1,1,1,1,1,1,0,1,1,1,1,0,0,1]",1,,,,,,stimuli/white_butterfly.png,stimuli/grey_butterfly.png,1,stimuli/blue_flower.png,stimuli/green_flower.png,stimuli/yellow_flower.png,stimuli/red_flower.png,right,stimuli/objects/aquarium.jpg,1,5,stimuli/white_butterfly.png,0,8,2021-01-15_16h18.19.271,premce3DEU_ses-02_part-01_label-phase1,2020.1.2,MacIntel,60,,,,,right,1,0.604,0,4,4,4,1,,,,,,,,
,,,,,1,"[0,1,1,1,1,1,1,1,1,1,1,1,1,1,1,1,1,1,1,1,1,1,1,1,1,1,1,1,1,1,1,1,1,1,1,1,1,1,1,1,1,1,1,1,1,1,1,1,1,1,1,0,0,0,1,1,1,1,1,1,1,0,1,1,1,1,1,1,1,1,1,1,1,1,1,1,1,1,1,1,1,1,1,1,1,1,1,0,0,0,0,1,1,1,1,1,1,1,1,1,1,1,1,1,1,1,1,1,1,1,1,1,1,1,1,1,1,1,0,1,1,1,1,0,0,1,1]",1,,,,,,stimuli/white_butterfly.png,stimuli/grey_butterfly.png,1,stimuli/green_flower.png,stimuli/blue_flower.png,stimuli/red_flower.png,stimuli/yellow_flower.png,down,stimuli/objects/greywolf.jpg,1,5,stimuli/white_butterfly.png,0,8,2021-01-15_16h18.19.271,premce3DEU_ses-02_part-01_label-phase1,2020.1.2,MacIntel,60,,,,,down,1,0.781,0,5,5,5,1,,,,,,,,
,,,,,1,"[0,1,1,1,1,1,1,1,1,1,1,1,1,1,1,1,1,1,1,1,1,1,1,1,1,1,1,1,1,1,1,1,1,1,1,1,1,1,1,1,1,1,1,1,1,1,1,1,1,1,1,0,0,0,1,1,1,1,1,1,1,0,1,1,1,1,1,1,1,1,1,1,1,1,1,1,1,1,1,1,1,1,1,1,1,1,1,0,0,0,0,1,1,1,1,1,1,1,1,1,1,1,1,1,1,1,1,1,1,1,1,1,1,1,1,1,1,1,0,1,1,1,1,0,0,1,1,1]",1,,,,,,stimuli/white_butterfly.png,stimuli/grey_butterfly.png,1,stimuli/green_flower.png,stimuli/yellow_flower.png,stimuli/blue_flower.png,stimuli/red_flower.png,right,stimuli/objects/fingerprint.jpg,1,5,stimuli/white_butterfly.png,0,8,2021-01-15_16h18.19.271,premce3DEU_ses-02_part-01_label-phase1,2020.1.2,MacIntel,60,,,,,right,1,0.783,0,6,6,6,1,,,,,,,,
,,,,,0,"[0,1,1,1,1,1,1,1,1,1,1,1,1,1,1,1,1,1,1,1,1,1,1,1,1,1,1,1,1,1,1,1,1,1,1,1,1,1,1,1,1,1,1,1,1,1,1,1,1,1,1,0,0,0,1,1,1,1,1,1,1,0,1,1,1,1,1,1,1,1,1,1,1,1,1,1,1,1,1,1,1,1,1,1,1,1,1,0,0,0,0,1,1,1,1,1,1,1,1,1,1,1,1,1,1,1,1,1,1,1,1,1,1,1,1,1,1,1,0,1,1,1,1,0,0,1,1,1,1]",1,,,,,,stimuli/white_butterfly.png,stimuli/grey_butterfly.png,2,stimuli/green_flower.png,stimuli/blue_flower.png,stimuli/red_flower.png,stimuli/yellow_flower.png,down,stimuli/objects/doghouse.jpg,0,5,stimuli/grey_butterfly.png,0,8,2021-01-15_16h18.19.271,premce3DEU_ses-02_part-01_label-phase1,2020.1.2,MacIntel,60,,,,,up,0,1.138,0,7,7,7,1,,,,,,,,
,,,,,0,"[0,1,1,1,1,1,1,1,1,1,1,1,1,1,1,1,1,1,1,1,1,1,1,1,1,1,1,1,1,1,1,1,1,1,1,1,1,1,1,1,1,1,1,1,1,1,1,1,1,1,1,0,0,0,1,1,1,1,1,1,1,0,1,1,1,1,1,1,1,1,1,1,1,1,1,1,1,1,1,1,1,1,1,1,1,1,1,0,0,0,0,1,1,1,1,1,1,1,1,1,1,1,1,1,1,1,1,1,1,1,1,1,1,1,1,1,1,1,0,1,1,1,1,0,0,1,1,1,1]",0,,,,,,stimuli/grey_butterfly.png,stimuli/white_butterfly.png,2,stimuli/blue_flower.png,stimuli/green_flower.png,stimuli/red_flower.png,stimuli/yellow_flower.png,down,stimuli/objects/dreamcatcher.jpg,1,5,stimuli/white_butterfly.png,0,8,2021-01-15_16h18.19.271,premce3DEU_ses-02_part-01_label-phase1,2020.1.2,MacIntel,60,,,,,left,0,1.879,0,8,8,8,1,,,,,,,,
,,,,,0,"[0,1,1,1,1,1,1,1,1,1,1,1,1,1,1,1,1,1,1,1,1,1,1,1,1,1,1,1,1,1,1,1,1,1,1,1,1,1,1,1,1,1,1,1,1,1,1,1,1,1,1,0,0,0,1,1,1,1,1,1,1,0,1,1,1,1,1,1,1,1,1,1,1,1,1,1,1,1,1,1,1,1,1,1,1,1,1,0,0,0,0,1,1,1,1,1,1,1,1,1,1,1,1,1,1,1,1,1,1,1,1,1,1,1,1,1,1,1,0,1,1,1,1,0,0,1,1,1,1,0]",0,,,,,,stimuli/white_butterfly.png,stimuli/grey_butterfly.png,2,stimuli/green_flower.png,stimuli/yellow_flower.png,stimuli/blue_flower.png,stimuli/red_flower.png,left,stimuli/objects/christmaslights.jpg,1,5,stimuli/grey_butterfly.png,0,8,2021-01-15_16h18.19.271,premce3DEU_ses-02_part-01_label-phase1,2020.1.2,MacIntel,60,,,,,down,0,1.043,0,9,9,9,1,,,,,,,,
,,,,,1,"[0,1,1,1,1,1,1,1,1,1,1,1,1,1,1,1,1,1,1,1,1,1,1,1,1,1,1,1,1,1,1,1,1,1,1,1,1,1,1,1,1,1,1,1,1,1,1,1,1,1,1,0,0,0,1,1,1,1,1,1,1,0,1,1,1,1,1,1,1,1,1,1,1,1,1,1,1,1,1,1,1,1,1,1,1,1,1,0,0,0,0,1,1,1,1,1,1,1,1,1,1,1,1,1,1,1,1,1,1,1,1,1,1,1,1,1,1,1,0,1,1,1,1,0,0,1,1,1,1,0,0]",1,,,,,,stimuli/white_butterfly.png,stimuli/grey_butterfly.png,2,stimuli/green_flower.png,stimuli/red_flower.png,stimuli/blue_flower.png,stimuli/yellow_flower.png,left,stimuli/objects/porcupine.jpg,1,5,stimuli/grey_butterfly.png,0,8,2021-01-15_16h18.19.271,premce3DEU_ses-02_part-01_label-phase1,2020.1.2,MacIntel,60,,,,,left,1,0.511,0,10,10,10,1,,,,,,,,
,,,,,1,"[0,1,1,1,1,1,1,1,1,1,1,1,1,1,1,1,1,1,1,1,1,1,1,1,1,1,1,1,1,1,1,1,1,1,1,1,1,1,1,1,1,1,1,1,1,1,1,1,1,1,1,0,0,0,1,1,1,1,1,1,1,0,1,1,1,1,1,1,1,1,1,1,1,1,1,1,1,1,1,1,1,1,1,1,1,1,1,0,0,0,0,1,1,1,1,1,1,1,1,1,1,1,1,1,1,1,1,1,1,1,1,1,1,1,1,1,1,1,0,1,1,1,1,0,0,1,1,1,1,0,0,1]",1,,,,,,stimuli/white_butterfly.png,stimuli/grey_butterfly.png,2,stimuli/blue_flower.png,stimuli/green_flower.png,stimuli/red_flower.png,stimuli/yellow_flower.png,up,stimuli/objects/volleyball.jpg,1,5,stimuli/grey_butterfly.png,0,8,2021-01-15_16h18.19.271,premce3DEU_ses-02_part-01_label-phase1,2020.1.2,MacIntel,60,,,,,up,1,0.558,0,11,11,11,1,,,,,,,,
,,,,,1,"[0,1,1,1,1,1,1,1,1,1,1,1,1,1,1,1,1,1,1,1,1,1,1,1,1,1,1,1,1,1,1,1,1,1,1,1,1,1,1,1,1,1,1,1,1,1,1,1,1,1,1,0,0,0,1,1,1,1,1,1,1,0,1,1,1,1,1,1,1,1,1,1,1,1,1,1,1,1,1,1,1,1,1,1,1,1,1,0,0,0,0,1,1,1,1,1,1,1,1,1,1,1,1,1,1,1,1,1,1,1,1,1,1,1,1,1,1,1,0,1,1,1,1,0,0,1,1,1,1,0,0,1,1]",1,,,,,,stimuli/white_butterfly.png,stimuli/grey_butterfly.png,2,stimuli/red_flower.png,stimuli/yellow_flower.png,stimuli/green_flower.png,stimuli/blue_flower.png,down,stimuli/objects/cookingpot.jpg,1,5,stimuli/grey_butterfly.png,0,8,2021-01-15_16h18.19.271,premce3DEU_ses-02_part-01_label-phase1,2020.1.2,MacIntel,60,,,,,down,1,1.813,0,12,12,12,1,,,,,,,,
,,,,,0,"[0,1,1,1,1,1,1,1,1,1,1,1,1,1,1,1,1,1,1,1,1,1,1,1,1,1,1,1,1,1,1,1,1,1,1,1,1,1,1,1,1,1,1,1,1,1,1,1,1,1,1,0,0,0,1,1,1,1,1,1,1,0,1,1,1,1,1,1,1,1,1,1,1,1,1,1,1,1,1,1,1,1,1,1,1,1,1,0,0,0,0,1,1,1,1,1,1,1,1,1,1,1,1,1,1,1,1,1,1,1,1,1,1,1,1,1,1,1,0,1,1,1,1,0,0,1,1,1,1,0,0,1,1,1]",0,,,,,,stimuli/grey_butterfly.png,stimuli/white_butterfly.png,2,stimuli/yellow_flower.png,stimuli/green_flower.png,stimuli/red_flower.png,stimuli/blue_flower.png,down,stimuli/objects/ironingboard01.jpg,1,5,stimuli/white_butterfly.png,0,8,2021-01-15_16h18.19.271,premce3DEU_ses-02_part-01_label-phase1,2020.1.2,MacIntel,60,,,,,up,0,0.911,0,13,13,13,1,,,,,,,,
,,,,,1,"[0,1,1,1,1,1,1,1,1,1,1,1,1,1,1,1,1,1,1,1,1,1,1,1,1,1,1,1,1,1,1,1,1,1,1,1,1,1,1,1,1,1,1,1,1,1,1,1,1,1,1,0,0,0,1,1,1,1,1,1,1,0,1,1,1,1,1,1,1,1,1,1,1,1,1,1,1,1,1,1,1,1,1,1,1,1,1,0,0,0,0,1,1,1,1,1,1,1,1,1,1,1,1,1,1,1,1,1,1,1,1,1,1,1,1,1,1,1,0,1,1,1,1,0,0,1,1,1,1,0,0,1,1,1,0]",1,,,,,,stimuli/grey_butterfly.png,stimuli/white_butterfly.png,1,stimuli/blue_flower.png,stimuli/red_flower.png,stimuli/yellow_flower.png,stimuli/green_flower.png,right,stimuli/objects/filingcabinet.jpg,1,5,stimuli/grey_butterfly.png,0,8,2021-01-15_16h18.19.271,premce3DEU_ses-02_part-01_label-phase1,2020.1.2,MacIntel,60,,,,,right,1,1.353,0,14,14,14,1,,,,,,,,
,,,,,1,"[0,1,1,1,1,1,1,1,1,1,1,1,1,1,1,1,1,1,1,1,1,1,1,1,1,1,1,1,1,1,1,1,1,1,1,1,1,1,1,1,1,1,1,1,1,1,1,1,1,1,1,0,0,0,1,1,1,1,1,1,1,0,1,1,1,1,1,1,1,1,1,1,1,1,1,1,1,1,1,1,1,1,1,1,1,1,1,0,0,0,0,1,1,1,1,1,1,1,1,1,1,1,1,1,1,1,1,1,1,1,1,1,1,1,1,1,1,1,0,1,1,1,1,0,0,1,1,1,1,0,0,1,1,1,0,1]",1,,,,,,stimuli/grey_butterfly.png,stimuli/white_butterfly.png,1,stimuli/green_flower.png,stimuli/red_flower.png,stimuli/yellow_flower.png,stimuli/blue_flower.png,left,stimuli/objects/butterfly2.jpg,1,5,stimuli/grey_butterfly.png,0,8,2021-01-15_16h18.19.271,premce3DEU_ses-02_part-01_label-phase1,2020.1.2,MacIntel,60,,,,,left,1,0.689,0,15,15,15,1,,,,,,,,
,,,,,1,"[0,1,1,1,1,1,1,1,1,1,1,1,1,1,1,1,1,1,1,1,1,1,1,1,1,1,1,1,1,1,1,1,1,1,1,1,1,1,1,1,1,1,1,1,1,1,1,1,1,1,1,0,0,0,1,1,1,1,1,1,1,0,1,1,1,1,1,1,1,1,1,1,1,1,1,1,1,1,1,1,1,1,1,1,1,1,1,0,0,0,0,1,1,1,1,1,1,1,1,1,1,1,1,1,1,1,1,1,1,1,1,1,1,1,1,1,1,1,0,1,1,1,1,0,0,1,1,1,1,0,0,1,1,1,0,1,1]",1,,,,,,stimuli/grey_butterfly.png,stimuli/white_butterfly.png,1,stimuli/blue_flower.png,stimuli/green_flower.png,stimuli/red_flower.png,stimuli/yellow_flower.png,up,stimuli/objects/granolabar01.jpg,1,5,stimuli/grey_butterfly.png,0,8,2021-01-15_16h18.19.271,premce3DEU_ses-02_part-01_label-phase1,2020.1.2,MacIntel,60,,,,,up,1,0.602,0,16,16,16,1,,,,,,,,
,,,,,1,"[0,1,1,1,1,1,1,1,1,1,1,1,1,1,1,1,1,1,1,1,1,1,1,1,1,1,1,1,1,1,1,1,1,1,1,1,1,1,1,1,1,1,1,1,1,1,1,1,1,1,1,0,0,0,1,1,1,1,1,1,1,0,1,1,1,1,1,1,1,1,1,1,1,1,1,1,1,1,1,1,1,1,1,1,1,1,1,0,0,0,0,1,1,1,1,1,1,1,1,1,1,1,1,1,1,1,1,1,1,1,1,1,1,1,1,1,1,1,0,1,1,1,1,0,0,1,1,1,1,0,0,1,1,1,0,1,1,1]",1,,,,,,stimuli/white_butterfly.png,stimuli/grey_butterfly.png,1,stimuli/green_flower.png,stimuli/red_flower.png,stimuli/yellow_flower.png,stimuli/blue_flower.png,up,stimuli/objects/redonion.jpg,1,5,stimuli/white_butterfly.png,0,8,2021-01-15_16h18.19.271,premce3DEU_ses-02_part-01_label-phase1,2020.1.2,MacIntel,60,,,,,up,1,0.647,0,17,17,17,1,,,,,,,,
,,,,,1,"[0,1,1,1,1,1,1,1,1,1,1,1,1,1,1,1,1,1,1,1,1,1,1,1,1,1,1,1,1,1,1,1,1,1,1,1,1,1,1,1,1,1,1,1,1,1,1,1,1,1,1,0,0,0,1,1,1,1,1,1,1,0,1,1,1,1,1,1,1,1,1,1,1,1,1,1,1,1,1,1,1,1,1,1,1,1,1,0,0,0,0,1,1,1,1,1,1,1,1,1,1,1,1,1,1,1,1,1,1,1,1,1,1,1,1,1,1,1,0,1,1,1,1,0,0,1,1,1,1,0,0,1,1,1,0,1,1,1,1]",1,,,,,,stimuli/white_butterfly.png,stimuli/grey_butterfly.png,2,stimuli/yellow_flower.png,stimuli/blue_flower.png,stimuli/red_flower.png,stimuli/green_flower.png,right,stimuli/objects/cloud.jpg,1,5,stimuli/grey_butterfly.png,0,8,2021-01-15_16h18.19.271,premce3DEU_ses-02_part-01_label-phase1,2020.1.2,MacIntel,60,,,,,right,1,0.589,0,18,18,18,1,,,,,,,,
,,,,,1,"[0,1,1,1,1,1,1,1,1,1,1,1,1,1,1,1,1,1,1,1,1,1,1,1,1,1,1,1,1,1,1,1,1,1,1,1,1,1,1,1,1,1,1,1,1,1,1,1,1,1,1,0,0,0,1,1,1,1,1,1,1,0,1,1,1,1,1,1,1,1,1,1,1,1,1,1,1,1,1,1,1,1,1,1,1,1,1,0,0,0,0,1,1,1,1,1,1,1,1,1,1,1,1,1,1,1,1,1,1,1,1,1,1,1,1,1,1,1,0,1,1,1,1,0,0,1,1,1,1,0,0,1,1,1,0,1,1,1,1,1]",1,,,,,,stimuli/white_butterfly.png,stimuli/grey_butterfly.png,1,stimuli/blue_flower.png,stimuli/red_flower.png,stimuli/green_flower.png,stimuli/yellow_flower.png,up,stimuli/objects/chime.jpg,1,5,stimuli/white_butterfly.png,0,8,2021-01-15_16h18.19.271,premce3DEU_ses-02_part-01_label-phase1,2020.1.2,MacIntel,60,,,,,up,1,0.476,0,19,19,19,1,,,,,,,,
,,,,,1,"[0,1,1,1,1,1,1,1,1,1,1,1,1,1,1,1,1,1,1,1,1,1,1,1,1,1,1,1,1,1,1,1,1,1,1,1,1,1,1,1,1,1,1,1,1,1,1,1,1,1,1,0,0,0,1,1,1,1,1,1,1,0,1,1,1,1,1,1,1,1,1,1,1,1,1,1,1,1,1,1,1,1,1,1,1,1,1,0,0,0,0,1,1,1,1,1,1,1,1,1,1,1,1,1,1,1,1,1,1,1,1,1,1,1,1,1,1,1,0,1,1,1,1,0,0,1,1,1,1,0,0,1,1,1,0,1,1,1,1,1,1]",1,,,,,,stimuli/grey_butterfly.png,stimuli/white_butterfly.png,1,stimuli/red_flower.png,stimuli/green_flower.png,stimuli/blue_flower.png,stimuli/yellow_flower.png,up,stimuli/objects/fishingrod.jpg,1,5,stimuli/grey_butterfly.png,0,8,2021-01-15_16h18.19.271,premce3DEU_ses-02_part-01_label-phase1,2020.1.2,MacIntel,60,,,,,up,1,0.594,0,20,20,20,1,,,,,,,,
,,,,,1,"[0,1,1,1,1,1,1,1,1,1,1,1,1,1,1,1,1,1,1,1,1,1,1,1,1,1,1,1,1,1,1,1,1,1,1,1,1,1,1,1,1,1,1,1,1,1,1,1,1,1,1,0,0,0,1,1,1,1,1,1,1,0,1,1,1,1,1,1,1,1,1,1,1,1,1,1,1,1,1,1,1,1,1,1,1,1,1,0,0,0,0,1,1,1,1,1,1,1,1,1,1,1,1,1,1,1,1,1,1,1,1,1,1,1,1,1,1,1,0,1,1,1,1,0,0,1,1,1,1,0,0,1,1,1,0,1,1,1,1,1,1,1]",1,,,,,,stimuli/grey_butterfly.png,stimuli/white_butterfly.png,2,stimuli/blue_flower.png,stimuli/green_flower.png,stimuli/yellow_flower.png,stimuli/red_flower.png,right,stimuli/objects/fishskeleton.jpg,1,5,stimuli/white_butterfly.png,1,8,2021-01-15_16h18.19.271,premce3DEU_ses-02_part-01_label-phase1,2020.1.2,MacIntel,60,,,,,right,1,0.509,0,21,21,21,1,,,,,,,,
,,,,,1,"[0,1,1,1,1,1,1,1,1,1,1,1,1,1,1,1,1,1,1,1,1,1,1,1,1,1,1,1,1,1,1,1,1,1,1,1,1,1,1,1,1,1,1,1,1,1,1,1,1,1,1,0,0,0,1,1,1,1,1,1,1,0,1,1,1,1,1,1,1,1,1,1,1,1,1,1,1,1,1,1,1,1,1,1,1,1,1,0,0,0,0,1,1,1,1,1,1,1,1,1,1,1,1,1,1,1,1,1,1,1,1,1,1,1,1,1,1,1,0,1,1,1,1,0,0,1,1,1,1,0,0,1,1,1,0,1,1,1,1,1,1,1,1]",1,,,,,,stimuli/grey_butterfly.png,stimuli/white_butterfly.png,1,stimuli/red_flower.png,stimuli/blue_flower.png,stimuli/green_flower.png,stimuli/yellow_flower.png,down,stimuli/objects/urinal.jpg,1,5,stimuli/grey_butterfly.png,1,8,2021-01-15_16h18.19.271,premce3DEU_ses-02_part-01_label-phase1,2020.1.2,MacIntel,60,,,,,down,1,0.875,0,22,22,22,1,,,,,,,,
,,,,,0,"[0,1,1,1,1,1,1,1,1,1,1,1,1,1,1,1,1,1,1,1,1,1,1,1,1,1,1,1,1,1,1,1,1,1,1,1,1,1,1,1,1,1,1,1,1,1,1,1,1,1,1,0,0,0,1,1,1,1,1,1,1,0,1,1,1,1,1,1,1,1,1,1,1,1,1,1,1,1,1,1,1,1,1,1,1,1,1,0,0,0,0,1,1,1,1,1,1,1,1,1,1,1,1,1,1,1,1,1,1,1,1,1,1,1,1,1,1,1,0,1,1,1,1,0,0,1,1,1,1,0,0,1,1,1,0,1,1,1,1,1,1,1,1,1]",0,,,,,,stimuli/grey_butterfly.png,stimuli/white_butterfly.png,2,stimuli/yellow_flower.png,stimuli/red_flower.png,stimuli/blue_flower.png,stimuli/green_flower.png,up,stimuli/objects/key07.jpg,1,5,stimuli/white_butterfly.png,1,8,2021-01-15_16h18.19.271,premce3DEU_ses-02_part-01_label-phase1,2020.1.2,MacIntel,60,,,,,right,0,1.833,0,23,23,23,1,,,,,,,,
,,,,,0,"[0,1,1,1,1,1,1,1,1,1,1,1,1,1,1,1,1,1,1,1,1,1,1,1,1,1,1,1,1,1,1,1,1,1,1,1,1,1,1,1,1,1,1,1,1,1,1,1,1,1,1,0,0,0,1,1,1,1,1,1,1,0,1,1,1,1,1,1,1,1,1,1,1,1,1,1,1,1,1,1,1,1,1,1,1,1,1,0,0,0,0,1,1,1,1,1,1,1,1,1,1,1,1,1,1,1,1,1,1,1,1,1,1,1,1,1,1,1,0,1,1,1,1,0,0,1,1,1,1,0,0,1,1,1,0,1,1,1,1,1,1,1,1,1,0]",0,,,,,,stimuli/white_butterfly.png,stimuli/grey_butterfly.png,2,stimuli/blue_flower.png,stimuli/green_flower.png,stimuli/yellow_flower.png,stimuli/red_flower.png,left,stimuli/objects/cremebrulee.jpg,0,5,stimuli/grey_butterfly.png,1,8,2021-01-15_16h18.19.271,premce3DEU_ses-02_part-01_label-phase1,2020.1.2,MacIntel,60,,,,,up,0,0.743,0,24,24,24,1,,,,,,,,
,,,,,1,"[0,1,1,1,1,1,1,1,1,1,1,1,1,1,1,1,1,1,1,1,1,1,1,1,1,1,1,1,1,1,1,1,1,1,1,1,1,1,1,1,1,1,1,1,1,1,1,1,1,1,1,0,0,0,1,1,1,1,1,1,1,0,1,1,1,1,1,1,1,1,1,1,1,1,1,1,1,1,1,1,1,1,1,1,1,1,1,0,0,0,0,1,1,1,1,1,1,1,1,1,1,1,1,1,1,1,1,1,1,1,1,1,1,1,1,1,1,1,0,1,1,1,1,0,0,1,1,1,1,0,0,1,1,1,0,1,1,1,1,1,1,1,1,1,0]",1,,,,,,stimuli/white_butterfly.png,stimuli/grey_butterfly.png,2,stimuli/red_flower.png,stimuli/green_flower.png,stimuli/yellow_flower.png,stimuli/blue_flower.png,up,stimuli/objects/toyanimal05.jpg,1,5,stimuli/grey_butterfly.png,1,8,2021-01-15_16h18.19.271,premce3DEU_ses-02_part-01_label-phase1,2020.1.2,MacIntel,60,,,,,up,1,0.446,0,25,25,25,1,,,,,,,,
,,,,,1,"[0,1,1,1,1,1,1,1,1,1,1,1,1,1,1,1,1,1,1,1,1,1,1,1,1,1,1,1,1,1,1,1,1,1,1,1,1,1,1,1,1,1,1,1,1,1,1,1,1,1,1,0,0,0,1,1,1,1,1,1,1,0,1,1,1,1,1,1,1,1,1,1,1,1,1,1,1,1,1,1,1,1,1,1,1,1,1,0,0,0,0,1,1,1,1,1,1,1,1,1,1,1,1,1,1,1,1,1,1,1,1,1,1,1,1,1,1,1,0,1,1,1,1,0,0,1,1,1,1,0,0,1,1,1,0,1,1,1,1,1,1,1,1,1,0,1]",1,,,,,,stimuli/grey_butterfly.png,stimuli/white_butterfly.png,1,stimuli/blue_flower.png,stimuli/red_flower.png,stimuli/green_flower.png,stimuli/yellow_flower.png,down,stimuli/objects/candycane01a.jpg,1,5,stimuli/grey_butterfly.png,1,8,2021-01-15_16h18.19.271,premce3DEU_ses-02_part-01_label-phase1,2020.1.2,MacIntel,60,,,,,down,1,0.924,0,26,26,26,1,,,,,,,,
,,,,,0,"[0,1,1,1,1,1,1,1,1,1,1,1,1,1,1,1,1,1,1,1,1,1,1,1,1,1,1,1,1,1,1,1,1,1,1,1,1,1,1,1,1,1,1,1,1,1,1,1,1,1,1,0,0,0,1,1,1,1,1,1,1,0,1,1,1,1,1,1,1,1,1,1,1,1,1,1,1,1,1,1,1,1,1,1,1,1,1,0,0,0,0,1,1,1,1,1,1,1,1,1,1,1,1,1,1,1,1,1,1,1,1,1,1,1,1,1,1,1,0,1,1,1,1,0,0,1,1,1,1,0,0,1,1,1,0,1,1,1,1,1,1,1,1,1,0,1,1]",0,,,,,,stimuli/white_butterfly.png,stimuli/grey_butterfly.png,2,stimuli/blue_flower.png,stimuli/red_flower.png,stimuli/green_flower.png,stimuli/yellow_flower.png,down,stimuli/objects/vacuumcleaner01.jpg,1,5,stimuli/grey_butterfly.png,1,8,2021-01-15_16h18.19.271,premce3DEU_ses-02_part-01_label-phase1,2020.1.2,MacIntel,60,,,,,up,0,0.4,0,27,27,27,1,,,,,,,,
,,,,,1,"[0,1,1,1,1,1,1,1,1,1,1,1,1,1,1,1,1,1,1,1,1,1,1,1,1,1,1,1,1,1,1,1,1,1,1,1,1,1,1,1,1,1,1,1,1,1,1,1,1,1,1,0,0,0,1,1,1,1,1,1,1,0,1,1,1,1,1,1,1,1,1,1,1,1,1,1,1,1,1,1,1,1,1,1,1,1,1,0,0,0,0,1,1,1,1,1,1,1,1,1,1,1,1,1,1,1,1,1,1,1,1,1,1,1,1,1,1,1,0,1,1,1,1,0,0,1,1,1,1,0,0,1,1,1,0,1,1,1,1,1,1,1,1,1,0,1,1,0]",1,,,,,,stimuli/grey_butterfly.png,stimuli/white_butterfly.png,1,stimuli/green_flower.png,stimuli/blue_flower.png,stimuli/red_flower.png,stimuli/yellow_flower.png,left,stimuli/objects/hotdog.jpg,1,5,stimuli/grey_butterfly.png,1,8,2021-01-15_16h18.19.271,premce3DEU_ses-02_part-01_label-phase1,2020.1.2,MacIntel,60,,,,,left,1,0.936,0,28,28,28,1,,,,,,,,
,,,,,1,"[0,1,1,1,1,1,1,1,1,1,1,1,1,1,1,1,1,1,1,1,1,1,1,1,1,1,1,1,1,1,1,1,1,1,1,1,1,1,1,1,1,1,1,1,1,1,1,1,1,1,1,0,0,0,1,1,1,1,1,1,1,0,1,1,1,1,1,1,1,1,1,1,1,1,1,1,1,1,1,1,1,1,1,1,1,1,1,0,0,0,0,1,1,1,1,1,1,1,1,1,1,1,1,1,1,1,1,1,1,1,1,1,1,1,1,1,1,1,0,1,1,1,1,0,0,1,1,1,1,0,0,1,1,1,0,1,1,1,1,1,1,1,1,1,0,1,1,0,1]",1,,,,,,stimuli/white_butterfly.png,stimuli/grey_butterfly.png,1,stimuli/red_flower.png,stimuli/yellow_flower.png,stimuli/blue_flower.png,stimuli/green_flower.png,left,stimuli/objects/lantern03.jpg,1,5,stimuli/white_butterfly.png,1,8,2021-01-15_16h18.19.271,premce3DEU_ses-02_part-01_label-phase1,2020.1.2,MacIntel,60,,,,,left,1,0.602,0,29,29,29,1,,,,,,,,
,,,,,0,"[0,1,1,1,1,1,1,1,1,1,1,1,1,1,1,1,1,1,1,1,1,1,1,1,1,1,1,1,1,1,1,1,1,1,1,1,1,1,1,1,1,1,1,1,1,1,1,1,1,1,1,0,0,0,1,1,1,1,1,1,1,0,1,1,1,1,1,1,1,1,1,1,1,1,1,1,1,1,1,1,1,1,1,1,1,1,1,0,0,0,0,1,1,1,1,1,1,1,1,1,1,1,1,1,1,1,1,1,1,1,1,1,1,1,1,1,1,1,0,1,1,1,1,0,0,1,1,1,1,0,0,1,1,1,0,1,1,1,1,1,1,1,1,1,0,1,1,0,1,1]",1,,,,,,stimuli/grey_butterfly.png,stimuli/white_butterfly.png,2,stimuli/yellow_flower.png,stimuli/blue_flower.png,stimuli/green_flower.png,stimuli/red_flower.png,left,stimuli/objects/acorn.jpg,0,5,stimuli/white_butterfly.png,1,8,2021-01-15_16h18.19.271,premce3DEU_ses-02_part-01_label-phase1,2020.1.2,MacIntel,60,,,,,right,0,0.653,0,30,30,30,1,,,,,,,,
,,,,,1,"[0,1,1,1,1,1,1,1,1,1,1,1,1,1,1,1,1,1,1,1,1,1,1,1,1,1,1,1,1,1,1,1,1,1,1,1,1,1,1,1,1,1,1,1,1,1,1,1,1,1,1,0,0,0,1,1,1,1,1,1,1,0,1,1,1,1,1,1,1,1,1,1,1,1,1,1,1,1,1,1,1,1,1,1,1,1,1,0,0,0,0,1,1,1,1,1,1,1,1,1,1,1,1,1,1,1,1,1,1,1,1,1,1,1,1,1,1,1,0,1,1,1,1,0,0,1,1,1,1,0,0,1,1,1,0,1,1,1,1,1,1,1,1,1,0,1,1,0,1,1]",1,,,,,,stimuli/white_butterfly.png,stimuli/grey_butterfly.png,2,stimuli/yellow_flower.png,stimuli/green_flower.png,stimuli/blue_flower.png,stimuli/red_flower.png,up,stimuli/objects/blender.jpg,1,5,stimuli/grey_butterfly.png,1,8,2021-01-15_16h18.19.271,premce3DEU_ses-02_part-01_label-phase1,2020.1.2,MacIntel,60,,,,,up,1,0.523,0,31,31,31,1,,,,,,,,
,,,,,1,"[0,1,1,1,1,1,1,1,1,1,1,1,1,1,1,1,1,1,1,1,1,1,1,1,1,1,1,1,1,1,1,1,1,1,1,1,1,1,1,1,1,1,1,1,1,1,1,1,1,1,1,0,0,0,1,1,1,1,1,1,1,0,1,1,1,1,1,1,1,1,1,1,1,1,1,1,1,1,1,1,1,1,1,1,1,1,1,0,0,0,0,1,1,1,1,1,1,1,1,1,1,1,1,1,1,1,1,1,1,1,1,1,1,1,1,1,1,1,0,1,1,1,1,0,0,1,1,1,1,0,0,1,1,1,0,1,1,1,1,1,1,1,1,1,0,1,1,0,1,1,1]",1,,,,,,stimuli/grey_butterfly.png,stimuli/white_butterfly.png,2,stimuli/green_flower.png,stimuli/red_flower.png,stimuli/blue_flower.png,stimuli/yellow_flower.png,up,stimuli/objects/jellybean.jpg,1,5,stimuli/white_butterfly.png,1,8,2021-01-15_16h18.19.271,premce3DEU_ses-02_part-01_label-phase1,2020.1.2,MacIntel,60,,,,,up,1,0.727,0,32,32,32,1,,,,,,,,
,,,,,1,"[0,1,1,1,1,1,1,1,1,1,1,1,1,1,1,1,1,1,1,1,1,1,1,1,1,1,1,1,1,1,1,1,1,1,1,1,1,1,1,1,1,1,1,1,1,1,1,1,1,1,1,0,0,0,1,1,1,1,1,1,1,0,1,1,1,1,1,1,1,1,1,1,1,1,1,1,1,1,1,1,1,1,1,1,1,1,1,0,0,0,0,1,1,1,1,1,1,1,1,1,1,1,1,1,1,1,1,1,1,1,1,1,1,1,1,1,1,1,0,1,1,1,1,0,0,1,1,1,1,0,0,1,1,1,0,1,1,1,1,1,1,1,1,1,0,1,1,0,1,1,1,1]",1,,,,,,stimuli/grey_butterfly.png,stimuli/white_butterfly.png,1,stimuli/red_flower.png,stimuli/yellow_flower.png,stimuli/blue_flower.png,stimuli/green_flower.png,right,stimuli/objects/musicstand.jpg,1,5,stimuli/grey_butterfly.png,1,8,2021-01-15_16h18.19.271,premce3DEU_ses-02_part-01_label-phase1,2020.1.2,MacIntel,60,,,,,right,1,0.433,0,33,33,33,1,,,,,,,,
,,,,,1,"[0,1,1,1,1,1,1,1,1,1,1,1,1,1,1,1,1,1,1,1,1,1,1,1,1,1,1,1,1,1,1,1,1,1,1,1,1,1,1,1,1,1,1,1,1,1,1,1,1,1,1,0,0,0,1,1,1,1,1,1,1,0,1,1,1,1,1,1,1,1,1,1,1,1,1,1,1,1,1,1,1,1,1,1,1,1,1,0,0,0,0,1,1,1,1,1,1,1,1,1,1,1,1,1,1,1,1,1,1,1,1,1,1,1,1,1,1,1,0,1,1,1,1,0,0,1,1,1,1,0,0,1,1,1,0,1,1,1,1,1,1,1,1,1,0,1,1,0,1,1,1,1,1]",1,,,,,,stimuli/grey_butterfly.png,stimuli/white_butterfly.png,2,stimuli/red_flower.png,stimuli/green_flower.png,stimuli/blue_flower.png,stimuli/yellow_flower.png,left,stimuli/objects/skihelmet01.jpg,1,5,stimuli/white_butterfly.png,1,8,2021-01-15_16h18.19.271,premce3DEU_ses-02_part-01_label-phase1,2020.1.2,MacIntel,60,,,,,left,1,0.633,0,34,34,34,1,,,,,,,,
,,,,,1,"[0,1,1,1,1,1,1,1,1,1,1,1,1,1,1,1,1,1,1,1,1,1,1,1,1,1,1,1,1,1,1,1,1,1,1,1,1,1,1,1,1,1,1,1,1,1,1,1,1,1,1,0,0,0,1,1,1,1,1,1,1,0,1,1,1,1,1,1,1,1,1,1,1,1,1,1,1,1,1,1,1,1,1,1,1,1,1,0,0,0,0,1,1,1,1,1,1,1,1,1,1,1,1,1,1,1,1,1,1,1,1,1,1,1,1,1,1,1,0,1,1,1,1,0,0,1,1,1,1,0,0,1,1,1,0,1,1,1,1,1,1,1,1,1,0,1,1,0,1,1,1,1,1,1]",1,,,,,,stimuli/grey_butterfly.png,stimuli/white_butterfly.png,2,stimuli/blue_flower.png,stimuli/red_flower.png,stimuli/yellow_flower.png,stimuli/green_flower.png,up,stimuli/objects/butterfly2.jpg,1,5,stimuli/white_butterfly.png,1,8,2021-01-15_16h18.19.271,premce3DEU_ses-02_part-01_label-phase1,2020.1.2,MacIntel,60,,,,,up,1,1.863,0,35,35,35,1,,,,,,,,
,,,,,1,"[0,1,1,1,1,1,1,1,1,1,1,1,1,1,1,1,1,1,1,1,1,1,1,1,1,1,1,1,1,1,1,1,1,1,1,1,1,1,1,1,1,1,1,1,1,1,1,1,1,1,1,0,0,0,1,1,1,1,1,1,1,0,1,1,1,1,1,1,1,1,1,1,1,1,1,1,1,1,1,1,1,1,1,1,1,1,1,0,0,0,0,1,1,1,1,1,1,1,1,1,1,1,1,1,1,1,1,1,1,1,1,1,1,1,1,1,1,1,0,1,1,1,1,0,0,1,1,1,1,0,0,1,1,1,0,1,1,1,1,1,1,1,1,1,0,1,1,0,1,1,1,1,1,1,1]",1,,,,,,stimuli/white_butterfly.png,stimuli/grey_butterfly.png,2,stimuli/blue_flower.png,stimuli/yellow_flower.png,stimuli/green_flower.png,stimuli/red_flower.png,down,stimuli/objects/frisbee.jpg,1,5,stimuli/grey_butterfly.png,1,8,2021-01-15_16h18.19.271,premce3DEU_ses-02_part-01_label-phase1,2020.1.2,MacIntel,60,,,,,down,1,0.806,0,36,36,36,1,,,,,,,,
,,,,,1,"[0,1,1,1,1,1,1,1,1,1,1,1,1,1,1,1,1,1,1,1,1,1,1,1,1,1,1,1,1,1,1,1,1,1,1,1,1,1,1,1,1,1,1,1,1,1,1,1,1,1,1,0,0,0,1,1,1,1,1,1,1,0,1,1,1,1,1,1,1,1,1,1,1,1,1,1,1,1,1,1,1,1,1,1,1,1,1,0,0,0,0,1,1,1,1,1,1,1,1,1,1,1,1,1,1,1,1,1,1,1,1,1,1,1,1,1,1,1,0,1,1,1,1,0,0,1,1,1,1,0,0,1,1,1,0,1,1,1,1,1,1,1,1,1,0,1,1,0,1,1,1,1,1,1,1,1]",1,,,,,,stimuli/grey_butterfly.png,stimuli/white_butterfly.png,2,stimuli/red_flower.png,stimuli/yellow_flower.png,stimuli/blue_flower.png,stimuli/green_flower.png,left,stimuli/objects/shovel01.jpg,1,5,stimuli/white_butterfly.png,1,8,2021-01-15_16h18.19.271,premce3DEU_ses-02_part-01_label-phase1,2020.1.2,MacIntel,60,,,,,left,1,0.537,0,37,37,37,1,,,,,,,,
,,,,,0,"[0,1,1,1,1,1,1,1,1,1,1,1,1,1,1,1,1,1,1,1,1,1,1,1,1,1,1,1,1,1,1,1,1,1,1,1,1,1,1,1,1,1,1,1,1,1,1,1,1,1,1,0,0,0,1,1,1,1,1,1,1,0,1,1,1,1,1,1,1,1,1,1,1,1,1,1,1,1,1,1,1,1,1,1,1,1,1,0,0,0,0,1,1,1,1,1,1,1,1,1,1,1,1,1,1,1,1,1,1,1,1,1,1,1,1,1,1,1,0,1,1,1,1,0,0,1,1,1,1,0,0,1,1,1,0,1,1,1,1,1,1,1,1,1,0,1,1,0,1,1,1,1,1,1,1,1,1]",1,,,,,,stimuli/white_butterfly.png,stimuli/grey_butterfly.png,1,stimuli/blue_flower.png,stimuli/green_flower.png,stimuli/red_flower.png,stimuli/yellow_flower.png,up,stimuli/objects/skiboot01a.jpg,0,5,stimuli/white_butterfly.png,1,8,2021-01-15_16h18.19.271,premce3DEU_ses-02_part-01_label-phase1,2020.1.2,MacIntel,60,,,,,down,0,0.813,0,38,38,38,1,,,,,,,,
,,,,,1,"[0,1,1,1,1,1,1,1,1,1,1,1,1,1,1,1,1,1,1,1,1,1,1,1,1,1,1,1,1,1,1,1,1,1,1,1,1,1,1,1,1,1,1,1,1,1,1,1,1,1,1,0,0,0,1,1,1,1,1,1,1,0,1,1,1,1,1,1,1,1,1,1,1,1,1,1,1,1,1,1,1,1,1,1,1,1,1,0,0,0,0,1,1,1,1,1,1,1,1,1,1,1,1,1,1,1,1,1,1,1,1,1,1,1,1,1,1,1,0,1,1,1,1,0,0,1,1,1,1,0,0,1,1,1,0,1,1,1,1,1,1,1,1,1,0,1,1,0,1,1,1,1,1,1,1,1,1]",1,,,,,,stimuli/grey_butterfly.png,stimuli/white_butterfly.png,2,stimuli/blue_flower.png,stimuli/yellow_flower.png,stimuli/green_flower.png,stimuli/red_flower.png,right,stimuli/objects/callbell.jpg,1,5,stimuli/white_butterfly.png,1,8,2021-01-15_16h18.19.271,premce3DEU_ses-02_part-01_label-phase1,2020.1.2,MacIntel,60,,,,,right,1,0.606,0,39,39,39,1,,,,,,,,
,,,,,1,"[0,1,1,1,1,1,1,1,1,1,1,1,1,1,1,1,1,1,1,1,1,1,1,1,1,1,1,1,1,1,1,1,1,1,1,1,1,1,1,1,1,1,1,1,1,1,1,1,1,1,1,0,0,0,1,1,1,1,1,1,1,0,1,1,1,1,1,1,1,1,1,1,1,1,1,1,1,1,1,1,1,1,1,1,1,1,1,0,0,0,0,1,1,1,1,1,1,1,1,1,1,1,1,1,1,1,1,1,1,1,1,1,1,1,1,1,1,1,0,1,1,1,1,0,0,1,1,1,1,0,0,1,1,1,0,1,1,1,1,1,1,1,1,1,0,1,1,0,1,1,1,1,1,1,1,1,1,1]",1,,,,,,stimuli/white_butterfly.png,stimuli/grey_butterfly.png,2,stimuli/green_flower.png,stimuli/yellow_flower.png,stimuli/red_flower.png,stimuli/blue_flower.png,left,stimuli/objects/shelves.jpg,1,5,stimuli/grey_butterfly.png,1,8,2021-01-15_16h18.19.271,premce3DEU_ses-02_part-01_label-phase1,2020.1.2,MacIntel,60,,,,,left,1,0.568,0,40,40,40,1,,,,,,,,
,,,,,0,"[0,1,1,1,1,1,1,1,1,1,1,1,1,1,1,1,1,1,1,1,1,1,1,1,1,1,1,1,1,1,1,1,1,1,1,1,1,1,1,1,1,1,1,1,1,1,1,1,1,1,1,0,0,0,1,1,1,1,1,1,1,0,1,1,1,1,1,1,1,1,1,1,1,1,1,1,1,1,1,1,1,1,1,1,1,1,1,0,0,0,0,1,1,1,1,1,1,1,1,1,1,1,1,1,1,1,1,1,1,1,1,1,1,1,1,1,1,1,0,1,1,1,1,0,0,1,1,1,1,0,0,1,1,1,0,1,1,1,1,1,1,1,1,1,0,1,1,0,1,1,1,1,1,1,1,1,1,1,1]",1,,,,,,stimuli/grey_butterfly.png,stimuli/white_butterfly.png,2,stimuli/yellow_flower.png,stimuli/red_flower.png,stimuli/green_flower.png,stimuli/blue_flower.png,right,stimuli/objects/doubledoors.jpg,0,5,stimuli/white_butterfly.png,1,8,2021-01-15_16h18.19.271,premce3DEU_ses-02_part-01_label-phase1,2020.1.2,MacIntel,60,,,,,up,0,1.021,0,41,41,41,1,,,,,,,,
,,,,,,,,,,,,,,,,,,,,,,,,,,8,2021-01-15_16h18.19.271,premce3DEU_ses-02_part-01_label-phase1,2020.1.2,MacIntel,60,,,,,,,,,,,,,,,,,,,space,67.194
