instructions_loop.thisRepN,instructions_loop.thisTrialN,instructions_loop.thisN,instructions_loop.thisIndex,instructions_loop.ran,text1,text2,text3,participant,date,expName,psychopyVersion,OS,frameRate,recog_resp.keys,recog_resp.rt,conf_resp.keys,conf_resp.rt,recog_loop.thisRepN,recog_loop.thisTrialN,recog_loop.thisN,recog_loop.thisIndex,recog_loop.ran,images,corr_ans,type,order,key_resp_break.keys,key_resp_break.rt,list_loop.thisRepN,list_loop.thisTrialN,list_loop.thisN,list_loop.thisIndex,list_loop.ran,recog_list
0,0,0,0,1,Willkommen zum letzten Teil des Experiments!,,Mit der LEERTASTE kannst du mit der Aufgabe fortfahren.,10,2021-01-15_15h10.03.937,premce3DEU_ses-02_part-02_label-phase2,2020.1.2,Win32,60,,,,,,,,,,,,,,,,,,,,,
0,1,1,1,1,,"Jetzt werden wir dir einige Bilder zeigen.

Bitte gib zu jedem Bild an, ob du du es im Verlauf des Experiments gesehen hast.

Drücke die LINKE PFEILTASTE für JA
Drücke die RECHTE PFEILTASTE für NEIN

",Mit der LEERTASTE kannst du mit der Aufgabe fortfahren.,10,2021-01-15_15h10.03.937,premce3DEU_ses-02_part-02_label-phase2,2020.1.2,Win32,60,,,,,,,,,,,,,,,,,,,,,
0,2,2,2,1,,"Anschließend bitten wir dich anzugeben wie sicher du dir bei deiner Wahl bist.

Bitte nutze die Zifferntasten von 1 bis 4 am oberen Ende deiner Tastatur um anzugeben, wie sicher du dir bei deiner Antwort bist.

Die Zahlen stehen für

1 = Sehr unsicher
2 = Unsicher
3 = Sicher
4 = Sehr sicher",Mit der LEERTASTE kannst du mit der Aufgabe fortfahren.,10,2021-01-15_15h10.03.937,premce3DEU_ses-02_part-02_label-phase2,2020.1.2,Win32,60,,,,,,,,,,,,,,,,,,,,,
,,,,,,,,10,2021-01-15_15h10.03.937,premce3DEU_ses-02_part-02_label-phase2,2020.1.2,Win32,60,left,2.421,4,3.963,0,0,0,156,1,stimuli/objects/skateboard.jpg,left,old,157,,,,,,,,
,,,,,,,,10,2021-01-15_15h10.03.937,premce3DEU_ses-02_part-02_label-phase2,2020.1.2,Win32,60,left,2.245,4,1.057,0,1,1,88,1,stimuli/objects/jackrabbit.jpg,left,old,89,,,,,,,,
,,,,,,,,10,2021-01-15_15h10.03.937,premce3DEU_ses-02_part-02_label-phase2,2020.1.2,Win32,60,right,2.784,3,2.438,0,2,2,110,1,stimuli/objects/foosballtable.jpg,right,new,111,,,,,,,,
,,,,,,,,10,2021-01-15_15h10.03.937,premce3DEU_ses-02_part-02_label-phase2,2020.1.2,Win32,60,right,1.682,4,1.348,0,3,3,80,1,stimuli/objects/tree.jpg,right,new,81,,,,,,,,
,,,,,,,,10,2021-01-15_15h10.03.937,premce3DEU_ses-02_part-02_label-phase2,2020.1.2,Win32,60,right,2.928,2,1.335,0,4,4,3,1,stimuli/objects/vacuumcleaner01.jpg,left,old,4,,,,,,,,
,,,,,,,,10,2021-01-15_15h10.03.937,premce3DEU_ses-02_part-02_label-phase2,2020.1.2,Win32,60,right,1.777,4,0.955,0,5,5,81,1,stimuli/objects/lighthouse.jpg,right,new,82,,,,,,,,
,,,,,,,,10,2021-01-15_15h10.03.937,premce3DEU_ses-02_part-02_label-phase2,2020.1.2,Win32,60,right,2.159,3,1.584,0,6,6,121,1,stimuli/objects/riverotter.jpg,right,new,122,,,,,,,,
,,,,,,,,10,2021-01-15_15h10.03.937,premce3DEU_ses-02_part-02_label-phase2,2020.1.2,Win32,60,right,1.562,3,0.856,0,7,7,96,1,stimuli/objects/awning.jpg,right,new,97,,,,,,,,
,,,,,,,,10,2021-01-15_15h10.03.937,premce3DEU_ses-02_part-02_label-phase2,2020.1.2,Win32,60,right,1.626,2,1.305,0,8,8,20,1,stimuli/objects/accordion01.jpg,right,new,21,,,,,,,,
,,,,,,,,10,2021-01-15_15h10.03.937,premce3DEU_ses-02_part-02_label-phase2,2020.1.2,Win32,60,right,1.397,2,0.791,0,9,9,86,1,stimuli/objects/chimney.jpg,right,new,87,,,,,,,,
,,,,,,,,10,2021-01-15_15h10.03.937,premce3DEU_ses-02_part-02_label-phase2,2020.1.2,Win32,60,right,1.586,2,0.641,0,10,10,21,1,stimuli/objects/tire.jpg,right,new,22,,,,,,,,
,,,,,,,,10,2021-01-15_15h10.03.937,premce3DEU_ses-02_part-02_label-phase2,2020.1.2,Win32,60,right,2.383,2,0.466,0,11,11,71,1,stimuli/objects/bed.jpg,right,new,72,,,,,,,,
,,,,,,,,10,2021-01-15_15h10.03.937,premce3DEU_ses-02_part-02_label-phase2,2020.1.2,Win32,60,right,1.943,3,0.848,0,12,12,70,1,stimuli/objects/balcony02.jpg,left,old,71,,,,,,,,
,,,,,,,,10,2021-01-15_15h10.03.937,premce3DEU_ses-02_part-02_label-phase2,2020.1.2,Win32,60,left,1.804,4,1.022,0,13,13,28,1,stimuli/objects/seaturtle.jpg,left,old,29,,,,,,,,
,,,,,,,,10,2021-01-15_15h10.03.937,premce3DEU_ses-02_part-02_label-phase2,2020.1.2,Win32,60,left,2.222,4,1.043,0,14,14,43,1,stimuli/objects/ostrich.jpg,right,new,44,,,,,,,,
,,,,,,,,10,2021-01-15_15h10.03.937,premce3DEU_ses-02_part-02_label-phase2,2020.1.2,Win32,60,right,1.393,3,1.069,0,15,15,24,1,stimuli/objects/icecube02.jpg,right,new,25,,,,,,,,
,,,,,,,,10,2021-01-15_15h10.03.937,premce3DEU_ses-02_part-02_label-phase2,2020.1.2,Win32,60,left,1.718,4,0.705,0,16,16,84,1,stimuli/objects/winniethepooh.jpg,left,old,85,,,,,,,,
,,,,,,,,10,2021-01-15_15h10.03.937,premce3DEU_ses-02_part-02_label-phase2,2020.1.2,Win32,60,right,3.883,3,0.773,0,17,17,32,1,stimuli/objects/moth.jpg,right,new,33,,,,,,,,
,,,,,,,,10,2021-01-15_15h10.03.937,premce3DEU_ses-02_part-02_label-phase2,2020.1.2,Win32,60,right,1.819,2,0.383,0,18,18,151,1,stimuli/objects/contactlens.jpg,left,old,152,,,,,,,,
,,,,,,,,10,2021-01-15_15h10.03.937,premce3DEU_ses-02_part-02_label-phase2,2020.1.2,Win32,60,right,1.874,2,1.473,0,19,19,141,1,stimuli/objects/stroller.jpg,right,new,142,,,,,,,,
,,,,,,,,10,2021-01-15_15h10.03.937,premce3DEU_ses-02_part-02_label-phase2,2020.1.2,Win32,60,right,1.817,2,0.681,0,20,20,45,1,stimuli/objects/fridge.jpg,left,old,46,,,,,,,,
,,,,,,,,10,2021-01-15_15h10.03.937,premce3DEU_ses-02_part-02_label-phase2,2020.1.2,Win32,60,right,1.787,3,0.455,0,21,21,9,1,stimuli/objects/rose.jpg,right,new,10,,,,,,,,
,,,,,,,,10,2021-01-15_15h10.03.937,premce3DEU_ses-02_part-02_label-phase2,2020.1.2,Win32,60,right,2.211,3,2.031,0,22,22,116,1,stimuli/objects/toucan.jpg,right,new,117,,,,,,,,
,,,,,,,,10,2021-01-15_15h10.03.937,premce3DEU_ses-02_part-02_label-phase2,2020.1.2,Win32,60,right,3.524,3,0.561,0,23,23,111,1,stimuli/objects/platypus.jpg,right,new,112,,,,,,,,
,,,,,,,,10,2021-01-15_15h10.03.937,premce3DEU_ses-02_part-02_label-phase2,2020.1.2,Win32,60,right,3.006,3,0.397,0,24,24,18,1,stimuli/objects/pingpongtable.jpg,right,new,19,,,,,,,,
,,,,,,,,10,2021-01-15_15h10.03.937,premce3DEU_ses-02_part-02_label-phase2,2020.1.2,Win32,60,right,2.515,3,0.487,0,25,25,138,1,stimuli/objects/cow.jpg,right,new,139,,,,,,,,
,,,,,,,,10,2021-01-15_15h10.03.937,premce3DEU_ses-02_part-02_label-phase2,2020.1.2,Win32,60,right,2.397,2,0.467,0,26,26,22,1,stimuli/objects/paperairplane.jpg,right,new,23,,,,,,,,
,,,,,,,,10,2021-01-15_15h10.03.937,premce3DEU_ses-02_part-02_label-phase2,2020.1.2,Win32,60,right,1.93,3,1.204,0,27,27,77,1,stimuli/objects/fishskeleton.jpg,left,old,78,,,,,,,,
,,,,,,,,10,2021-01-15_15h10.03.937,premce3DEU_ses-02_part-02_label-phase2,2020.1.2,Win32,60,right,1.111,2,0.946,0,28,28,36,1,stimuli/objects/christmaslights.jpg,left,old,37,,,,,,,,
,,,,,,,,10,2021-01-15_15h10.03.937,premce3DEU_ses-02_part-02_label-phase2,2020.1.2,Win32,60,right,1.379,3,0.964,0,29,29,155,1,stimuli/objects/calendar.jpg,right,new,156,,,,,,,,
,,,,,,,,10,2021-01-15_15h10.03.937,premce3DEU_ses-02_part-02_label-phase2,2020.1.2,Win32,60,right,2.377,2,0.973,0,30,30,132,1,stimuli/objects/shower.jpg,left,old,133,,,,,,,,
,,,,,,,,10,2021-01-15_15h10.03.937,premce3DEU_ses-02_part-02_label-phase2,2020.1.2,Win32,60,right,5.679,1,0.291,0,31,31,33,1,stimuli/objects/caribou02.jpg,right,new,34,,,,,,,,
,,,,,,,,10,2021-01-15_15h10.03.937,premce3DEU_ses-02_part-02_label-phase2,2020.1.2,Win32,60,left,3.494,2,1.305,0,32,32,55,1,stimuli/objects/drumstick.jpg,right,new,56,,,,,,,,
,,,,,,,,10,2021-01-15_15h10.03.937,premce3DEU_ses-02_part-02_label-phase2,2020.1.2,Win32,60,left,1.983,2,1.103,0,33,33,58,1,stimuli/objects/beaver.jpg,left,old,59,,,,,,,,
,,,,,,,,10,2021-01-15_15h10.03.937,premce3DEU_ses-02_part-02_label-phase2,2020.1.2,Win32,60,left,2.537,2,0.765,0,34,34,157,1,stimuli/objects/cookingpot.jpg,left,old,158,,,,,,,,
,,,,,,,,10,2021-01-15_15h10.03.937,premce3DEU_ses-02_part-02_label-phase2,2020.1.2,Win32,60,right,1.432,2,0.387,0,35,35,147,1,stimuli/objects/toiletbrush.jpg,right,new,148,,,,,,,,
,,,,,,,,10,2021-01-15_15h10.03.937,premce3DEU_ses-02_part-02_label-phase2,2020.1.2,Win32,60,left,3.133,2,0.356,0,36,36,104,1,stimuli/objects/porcupine.jpg,left,old,105,,,,,,,,
,,,,,,,,10,2021-01-15_15h10.03.937,premce3DEU_ses-02_part-02_label-phase2,2020.1.2,Win32,60,left,4.648,2,0.323,0,37,37,50,1,stimuli/objects/lionstatue.jpg,left,old,51,,,,,,,,
,,,,,,,,10,2021-01-15_15h10.03.937,premce3DEU_ses-02_part-02_label-phase2,2020.1.2,Win32,60,right,4.46,2,0.507,0,38,38,134,1,stimuli/objects/nunchuk.jpg,right,new,135,,,,,,,,
,,,,,,,,10,2021-01-15_15h10.03.937,premce3DEU_ses-02_part-02_label-phase2,2020.1.2,Win32,60,right,1.912,2,0.735,0,39,39,76,1,stimuli/objects/morningstar.jpg,right,new,77,,,,,,,,
,,,,,,,,10,2021-01-15_15h10.03.937,premce3DEU_ses-02_part-02_label-phase2,2020.1.2,Win32,60,left,1.643,4,1.607,0,40,40,44,1,stimuli/objects/artichoke01b.jpg,left,old,45,,,,,,,,
,,,,,,,,10,2021-01-15_15h10.03.937,premce3DEU_ses-02_part-02_label-phase2,2020.1.2,Win32,60,right,3.183,2,1.498,0,41,41,154,1,stimuli/objects/curtain.jpg,right,new,155,,,,,,,,
,,,,,,,,10,2021-01-15_15h10.03.937,premce3DEU_ses-02_part-02_label-phase2,2020.1.2,Win32,60,right,1.568,3,0.471,0,42,42,94,1,stimuli/objects/dandelion.jpg,right,new,95,,,,,,,,
,,,,,,,,10,2021-01-15_15h10.03.937,premce3DEU_ses-02_part-02_label-phase2,2020.1.2,Win32,60,right,3.413,4,0.521,0,43,43,143,1,stimuli/objects/faucet.jpg,right,new,144,,,,,,,,
,,,,,,,,10,2021-01-15_15h10.03.937,premce3DEU_ses-02_part-02_label-phase2,2020.1.2,Win32,60,right,4.22,3,1.416,0,44,44,146,1,stimuli/objects/ant.jpg,right,new,147,,,,,,,,
,,,,,,,,10,2021-01-15_15h10.03.937,premce3DEU_ses-02_part-02_label-phase2,2020.1.2,Win32,60,right,6.321,2,0.901,0,45,45,149,1,stimuli/objects/dolly01.jpg,right,new,150,,,,,,,,
,,,,,,,,10,2021-01-15_15h10.03.937,premce3DEU_ses-02_part-02_label-phase2,2020.1.2,Win32,60,right,1.766,2,0.173,0,46,46,130,1,stimuli/objects/tulip02.jpg,left,old,131,,,,,,,,
,,,,,,,,10,2021-01-15_15h10.03.937,premce3DEU_ses-02_part-02_label-phase2,2020.1.2,Win32,60,right,1.132,2,0.202,0,47,47,23,1,stimuli/objects/lollipop04.jpg,right,new,24,,,,,,,,
,,,,,,,,10,2021-01-15_15h10.03.937,premce3DEU_ses-02_part-02_label-phase2,2020.1.2,Win32,60,right,2.7,3,0.366,0,48,48,66,1,stimuli/objects/shipinabottle.jpg,right,new,67,,,,,,,,
,,,,,,,,10,2021-01-15_15h10.03.937,premce3DEU_ses-02_part-02_label-phase2,2020.1.2,Win32,60,left,5.672,2,2.324,0,49,49,78,1,stimuli/objects/monarchbutterfly.jpg,left,old,79,,,,,,,,
,,,,,,,,10,2021-01-15_15h10.03.937,premce3DEU_ses-02_part-02_label-phase2,2020.1.2,Win32,60,right,2.01,2,2.931,0,50,50,68,1,stimuli/objects/cuttlefish.jpg,left,old,69,,,,,,,,
,,,,,,,,10,2021-01-15_15h10.03.937,premce3DEU_ses-02_part-02_label-phase2,2020.1.2,Win32,60,left,1.648,2,0.601,0,51,51,62,1,stimuli/objects/trophy01.jpg,left,old,63,,,,,,,,
,,,,,,,,10,2021-01-15_15h10.03.937,premce3DEU_ses-02_part-02_label-phase2,2020.1.2,Win32,60,right,1.867,2,0.456,0,52,52,114,1,stimuli/objects/star.jpg,left,old,115,,,,,,,,
,,,,,,,,10,2021-01-15_15h10.03.937,premce3DEU_ses-02_part-02_label-phase2,2020.1.2,Win32,60,right,1.26,2,0.575,0,53,53,1,1,stimuli/objects/pooltable.jpg,right,new,2,,,,,,,,
,,,,,,,,10,2021-01-15_15h10.03.937,premce3DEU_ses-02_part-02_label-phase2,2020.1.2,Win32,60,right,3.51,2,0.766,0,54,54,42,1,stimuli/objects/snowshoe.jpg,right,new,43,,,,,,,,
,,,,,,,,10,2021-01-15_15h10.03.937,premce3DEU_ses-02_part-02_label-phase2,2020.1.2,Win32,60,right,5.416,2,0.113,0,55,55,137,1,stimuli/objects/brownsugar.jpg,left,old,138,,,,,,,,
,,,,,,,,10,2021-01-15_15h10.03.937,premce3DEU_ses-02_part-02_label-phase2,2020.1.2,Win32,60,right,2.002,1,1.178,0,56,56,124,1,stimuli/objects/handheldtelescope.jpg,left,old,125,,,,,,,,
,,,,,,,,10,2021-01-15_15h10.03.937,premce3DEU_ses-02_part-02_label-phase2,2020.1.2,Win32,60,left,2.21,4,0.7,0,57,57,56,1,stimuli/objects/jeans01.jpg,left,old,57,,,,,,,,
,,,,,,,,10,2021-01-15_15h10.03.937,premce3DEU_ses-02_part-02_label-phase2,2020.1.2,Win32,60,right,2.683,3,0.643,0,58,58,100,1,stimuli/objects/macaroni01.jpg,right,new,101,,,,,,,,
,,,,,,,,10,2021-01-15_15h10.03.937,premce3DEU_ses-02_part-02_label-phase2,2020.1.2,Win32,60,right,3.495,2,0.108,0,59,59,37,1,stimuli/objects/golfball.jpg,left,old,38,,,,,,,,
,,,,,,,,10,2021-01-15_15h10.03.937,premce3DEU_ses-02_part-02_label-phase2,2020.1.2,Win32,60,right,1.602,4,1.548,0,60,60,8,1,stimuli/objects/englishcucumber.jpg,right,new,9,,,,,,,,
,,,,,,,,10,2021-01-15_15h10.03.937,premce3DEU_ses-02_part-02_label-phase2,2020.1.2,Win32,60,right,1.326,3,0.407,0,61,61,118,1,stimuli/objects/microwave.jpg,left,old,119,,,,,,,,
,,,,,,,,10,2021-01-15_15h10.03.937,premce3DEU_ses-02_part-02_label-phase2,2020.1.2,Win32,60,right,2.231,3,0.536,0,62,62,153,1,stimuli/objects/coffeemachine.jpg,left,old,154,,,,,,,,
,,,,,,,,10,2021-01-15_15h10.03.937,premce3DEU_ses-02_part-02_label-phase2,2020.1.2,Win32,60,right,1.952,2,0.007,0,63,63,16,1,stimuli/objects/cactus.jpg,left,old,17,,,,,,,,
,,,,,,,,10,2021-01-15_15h10.03.937,premce3DEU_ses-02_part-02_label-phase2,2020.1.2,Win32,60,right,1.527,2,0.682,0,64,64,133,1,stimuli/objects/sink.jpg,right,new,134,,,,,,,,
,,,,,,,,10,2021-01-15_15h10.03.937,premce3DEU_ses-02_part-02_label-phase2,2020.1.2,Win32,60,right,1.858,2,0.491,0,65,65,150,1,stimuli/objects/eiffeltower.jpg,right,new,151,,,,,,,,
,,,,,,,,10,2021-01-15_15h10.03.937,premce3DEU_ses-02_part-02_label-phase2,2020.1.2,Win32,60,left,4.156,2,0.387,0,66,66,53,1,stimuli/objects/honeybee.jpg,right,new,54,,,,,,,,
,,,,,,,,10,2021-01-15_15h10.03.937,premce3DEU_ses-02_part-02_label-phase2,2020.1.2,Win32,60,left,1.33,4,0.438,0,67,67,7,1,stimuli/objects/redonion.jpg,left,old,8,,,,,,,,
,,,,,,,,10,2021-01-15_15h10.03.937,premce3DEU_ses-02_part-02_label-phase2,2020.1.2,Win32,60,left,2.377,4,0.594,0,68,68,103,1,stimuli/objects/salmon.jpg,left,old,104,,,,,,,,
,,,,,,,,10,2021-01-15_15h10.03.937,premce3DEU_ses-02_part-02_label-phase2,2020.1.2,Win32,60,left,2.618,2,0.306,0,69,69,5,1,stimuli/objects/horse.jpg,left,old,6,,,,,,,,
,,,,,,,,10,2021-01-15_15h10.03.937,premce3DEU_ses-02_part-02_label-phase2,2020.1.2,Win32,60,left,2.218,3,1.792,0,70,70,4,1,stimuli/objects/skipole.jpg,right,new,5,,,,,,,,
,,,,,,,,10,2021-01-15_15h10.03.937,premce3DEU_ses-02_part-02_label-phase2,2020.1.2,Win32,60,right,4.289,2,0.504,0,71,71,148,1,stimuli/objects/peacock.jpg,right,new,149,,,,,,,,
,,,,,,,,10,2021-01-15_15h10.03.937,premce3DEU_ses-02_part-02_label-phase2,2020.1.2,Win32,60,right,4.467,1,1.523,0,72,72,98,1,stimuli/objects/handbrush02.jpg,left,old,99,,,,,,,,
,,,,,,,,10,2021-01-15_15h10.03.937,premce3DEU_ses-02_part-02_label-phase2,2020.1.2,Win32,60,left,3.14,2,0.383,0,73,73,14,1,stimuli/objects/canoepaddle02.jpg,left,old,15,,,,,,,,
,,,,,,,,10,2021-01-15_15h10.03.937,premce3DEU_ses-02_part-02_label-phase2,2020.1.2,Win32,60,right,2.728,2,0.406,0,74,74,13,1,stimuli/objects/tower.jpg,right,new,14,,,,,,,,
,,,,,,,,10,2021-01-15_15h10.03.937,premce3DEU_ses-02_part-02_label-phase2,2020.1.2,Win32,60,right,2.441,2,0.734,0,75,75,59,1,stimuli/objects/birdhouse.jpg,right,new,60,,,,,,,,
,,,,,,,,10,2021-01-15_15h10.03.937,premce3DEU_ses-02_part-02_label-phase2,2020.1.2,Win32,60,right,1.513,2,0.331,0,76,76,25,1,stimuli/objects/honeycomb.jpg,right,new,26,,,,,,,,
,,,,,,,,10,2021-01-15_15h10.03.937,premce3DEU_ses-02_part-02_label-phase2,2020.1.2,Win32,60,right,3.891,3,1.763,0,77,77,139,1,stimuli/objects/safe.jpg,right,new,140,,,,,,,,
,,,,,,,,10,2021-01-15_15h10.03.937,premce3DEU_ses-02_part-02_label-phase2,2020.1.2,Win32,60,right,2.559,3,0.747,0,78,78,112,1,stimuli/objects/tank.jpg,right,new,113,,,,,,,,
,,,,,,,,10,2021-01-15_15h10.03.937,premce3DEU_ses-02_part-02_label-phase2,2020.1.2,Win32,60,right,5.368,2,0.542,0,79,79,12,1,stimuli/objects/pigeon.jpg,right,new,13,,,,,,,,
,,,,,,,,10,2021-01-15_15h10.03.937,premce3DEU_ses-02_part-02_label-phase2,2020.1.2,Win32,60,left,5.03,3,0.863,0,80,80,105,1,stimuli/objects/gps.jpg,left,old,106,,,,,,,,
,,,,,,,,10,2021-01-15_15h10.03.937,premce3DEU_ses-02_part-02_label-phase2,2020.1.2,Win32,60,left,4.118,2,0.448,0,81,81,2,1,stimuli/objects/table01.jpg,left,old,3,,,,,,,,
,,,,,,,,10,2021-01-15_15h10.03.937,premce3DEU_ses-02_part-02_label-phase2,2020.1.2,Win32,60,left,2.409,3,0.816,0,82,82,11,1,stimuli/objects/cannon.jpg,left,old,12,,,,,,,,
,,,,,,,,10,2021-01-15_15h10.03.937,premce3DEU_ses-02_part-02_label-phase2,2020.1.2,Win32,60,right,1.693,2,0.586,0,83,83,41,1,stimuli/objects/faxmachine.jpg,right,new,42,,,,,,,,
,,,,,,,,10,2021-01-15_15h10.03.937,premce3DEU_ses-02_part-02_label-phase2,2020.1.2,Win32,60,right,1.058,4,1.461,0,84,84,65,1,stimuli/objects/weddingcake.jpg,left,old,66,,,,,,,,
,,,,,,,,10,2021-01-15_15h10.03.937,premce3DEU_ses-02_part-02_label-phase2,2020.1.2,Win32,60,right,1.678,2,0.703,0,85,85,17,1,stimuli/objects/parkingmeter.jpg,right,new,18,,,,,,,,
,,,,,,,,10,2021-01-15_15h10.03.937,premce3DEU_ses-02_part-02_label-phase2,2020.1.2,Win32,60,left,2.235,3,0.291,0,86,86,140,1,stimuli/objects/exitsign.jpg,left,old,141,,,,,,,,
,,,,,,,,10,2021-01-15_15h10.03.937,premce3DEU_ses-02_part-02_label-phase2,2020.1.2,Win32,60,left,1.507,4,0.649,0,87,87,135,1,stimuli/objects/basketball01.jpg,left,old,136,,,,,,,,
,,,,,,,,10,2021-01-15_15h10.03.937,premce3DEU_ses-02_part-02_label-phase2,2020.1.2,Win32,60,right,3.312,2,0.555,0,88,88,95,1,stimuli/objects/scalpel.jpg,left,old,96,,,,,,,,
,,,,,,,,10,2021-01-15_15h10.03.937,premce3DEU_ses-02_part-02_label-phase2,2020.1.2,Win32,60,left,1.801,4,0.514,0,89,89,82,1,stimuli/objects/crown.jpg,left,old,83,,,,,,,,
,,,,,,,,10,2021-01-15_15h10.03.937,premce3DEU_ses-02_part-02_label-phase2,2020.1.2,Win32,60,right,1.544,3,1.383,0,90,90,0,1,stimuli/objects/treestump.jpg,left,old,1,,,,,,,,
,,,,,,,,10,2021-01-15_15h10.03.937,premce3DEU_ses-02_part-02_label-phase2,2020.1.2,Win32,60,right,3.08,3,0.606,0,91,91,67,1,stimuli/objects/volleyball.jpg,left,old,68,,,,,,,,
,,,,,,,,10,2021-01-15_15h10.03.937,premce3DEU_ses-02_part-02_label-phase2,2020.1.2,Win32,60,right,1.418,3,1.515,0,92,92,89,1,stimuli/objects/bowlingball.jpg,right,new,90,,,,,,,,
,,,,,,,,10,2021-01-15_15h10.03.937,premce3DEU_ses-02_part-02_label-phase2,2020.1.2,Win32,60,left,3.11,3,0.301,0,93,93,90,1,stimuli/objects/trailer.jpg,right,new,91,,,,,,,,
,,,,,,,,10,2021-01-15_15h10.03.937,premce3DEU_ses-02_part-02_label-phase2,2020.1.2,Win32,60,left,2.951,4,0.467,0,94,94,97,1,stimuli/objects/dreamcatcher.jpg,left,old,98,,,,,,,,
,,,,,,,,10,2021-01-15_15h10.03.937,premce3DEU_ses-02_part-02_label-phase2,2020.1.2,Win32,60,right,1.293,3,1.172,0,95,95,27,1,stimuli/objects/coffeemaker.jpg,left,old,28,,,,,,,,
,,,,,,,,10,2021-01-15_15h10.03.937,premce3DEU_ses-02_part-02_label-phase2,2020.1.2,Win32,60,left,2.894,4,0.806,0,96,96,48,1,stimuli/objects/bowlingpin.jpg,left,old,49,,,,,,,,
,,,,,,,,10,2021-01-15_15h10.03.937,premce3DEU_ses-02_part-02_label-phase2,2020.1.2,Win32,60,left,7.813,3,0.416,0,97,97,30,1,stimuli/objects/fortunecookie.jpg,right,new,31,,,,,,,,
,,,,,,,,10,2021-01-15_15h10.03.937,premce3DEU_ses-02_part-02_label-phase2,2020.1.2,Win32,60,left,3.706,2,0.339,0,98,98,131,1,stimuli/objects/missile.jpg,right,new,132,,,,,,,,
,,,,,,,,10,2021-01-15_15h10.03.937,premce3DEU_ses-02_part-02_label-phase2,2020.1.2,Win32,60,right,1.402,2,0.322,0,99,99,87,1,stimuli/objects/filingcabinet.jpg,left,old,88,,,,,,,,
,,,,,,,,10,2021-01-15_15h10.03.937,premce3DEU_ses-02_part-02_label-phase2,2020.1.2,Win32,60,right,1.149,3,0.533,0,100,100,106,1,stimuli/objects/helicopter.jpg,right,new,107,,,,,,,,
,,,,,,,,10,2021-01-15_15h10.03.937,premce3DEU_ses-02_part-02_label-phase2,2020.1.2,Win32,60,right,1.776,3,0.183,0,101,101,152,1,stimuli/objects/urinal.jpg,left,old,153,,,,,,,,
,,,,,,,,10,2021-01-15_15h10.03.937,premce3DEU_ses-02_part-02_label-phase2,2020.1.2,Win32,60,right,0.889,3,0.438,0,102,102,85,1,stimuli/objects/bridge.jpg,right,new,86,,,,,,,,
,,,,,,,,10,2021-01-15_15h10.03.937,premce3DEU_ses-02_part-02_label-phase2,2020.1.2,Win32,60,left,1.754,3,0.386,0,103,103,6,1,stimuli/objects/pumpkin.jpg,left,old,7,,,,,,,,
,,,,,,,,10,2021-01-15_15h10.03.937,premce3DEU_ses-02_part-02_label-phase2,2020.1.2,Win32,60,right,2.767,4,0.579,0,104,104,113,1,stimuli/objects/shoppingcart.jpg,right,new,114,,,,,,,,
,,,,,,,,10,2021-01-15_15h10.03.937,premce3DEU_ses-02_part-02_label-phase2,2020.1.2,Win32,60,left,1.623,3,0.312,0,105,105,83,1,stimuli/objects/flugglehorn.jpg,right,new,84,,,,,,,,
,,,,,,,,10,2021-01-15_15h10.03.937,premce3DEU_ses-02_part-02_label-phase2,2020.1.2,Win32,60,right,2.353,3,0.852,0,106,106,39,1,stimuli/objects/electrictoothbrush01c.jpg,right,new,40,,,,,,,,
,,,,,,,,10,2021-01-15_15h10.03.937,premce3DEU_ses-02_part-02_label-phase2,2020.1.2,Win32,60,left,1.799,4,0.451,0,107,107,127,1,stimuli/objects/sausage.jpg,left,old,128,,,,,,,,
,,,,,,,,10,2021-01-15_15h10.03.937,premce3DEU_ses-02_part-02_label-phase2,2020.1.2,Win32,60,right,2.933,2,0.353,0,108,108,99,1,stimuli/objects/waterfountain02.jpg,left,old,100,,,,,,,,
,,,,,,,,10,2021-01-15_15h10.03.937,premce3DEU_ses-02_part-02_label-phase2,2020.1.2,Win32,60,left,3.222,3,0.404,0,109,109,40,1,stimuli/objects/cremebrulee.jpg,left,old,41,,,,,,,,
,,,,,,,,10,2021-01-15_15h10.03.937,premce3DEU_ses-02_part-02_label-phase2,2020.1.2,Win32,60,right,2.836,2,0.338,0,110,110,136,1,stimuli/objects/wheat.jpg,right,new,137,,,,,,,,
,,,,,,,,10,2021-01-15_15h10.03.937,premce3DEU_ses-02_part-02_label-phase2,2020.1.2,Win32,60,right,2.768,3,0.792,0,111,111,120,1,stimuli/objects/panda.jpg,left,old,121,,,,,,,,
,,,,,,,,10,2021-01-15_15h10.03.937,premce3DEU_ses-02_part-02_label-phase2,2020.1.2,Win32,60,right,1.562,2,0.39,0,112,112,10,1,stimuli/objects/tablesaw.jpg,right,new,11,,,,,,,,
,,,,,,,,10,2021-01-15_15h10.03.937,premce3DEU_ses-02_part-02_label-phase2,2020.1.2,Win32,60,right,1.043,3,0.557,0,113,113,51,1,stimuli/objects/road02.jpg,right,new,52,,,,,,,,
,,,,,,,,10,2021-01-15_15h10.03.937,premce3DEU_ses-02_part-02_label-phase2,2020.1.2,Win32,60,right,1.102,3,1.075,0,114,114,158,1,stimuli/objects/watercooler.jpg,right,new,159,,,,,,,,
,,,,,,,,10,2021-01-15_15h10.03.937,premce3DEU_ses-02_part-02_label-phase2,2020.1.2,Win32,60,right,0.983,1,1.799,0,115,115,29,1,stimuli/objects/snowman.jpg,left,old,30,,,,,,,,
,,,,,,,,10,2021-01-15_15h10.03.937,premce3DEU_ses-02_part-02_label-phase2,2020.1.2,Win32,60,left,3.568,3,2.584,0,116,116,47,1,stimuli/objects/stepladder.jpg,left,old,48,,,,,,,,
,,,,,,,,10,2021-01-15_15h10.03.937,premce3DEU_ses-02_part-02_label-phase2,2020.1.2,Win32,60,left,1.476,3,0.716,0,117,117,15,1,stimuli/objects/dromedary.jpg,left,old,16,,,,,,,,
,,,,,,,,10,2021-01-15_15h10.03.937,premce3DEU_ses-02_part-02_label-phase2,2020.1.2,Win32,60,right,2.296,2,2.283,0,118,118,108,1,stimuli/objects/communitymailbox.jpg,left,old,109,,,,,,,,
,,,,,,,,10,2021-01-15_15h10.03.937,premce3DEU_ses-02_part-02_label-phase2,2020.1.2,Win32,60,left,2.353,3,3.755,0,119,119,61,1,stimuli/objects/jokercard.jpg,left,old,62,,,,,,,,
,,,,,,,,10,2021-01-15_15h10.03.937,premce3DEU_ses-02_part-02_label-phase2,2020.1.2,Win32,60,right,1.204,2,0.742,0,120,120,129,1,stimuli/objects/lawnmower.jpg,right,new,130,,,,,,,,
,,,,,,,,10,2021-01-15_15h10.03.937,premce3DEU_ses-02_part-02_label-phase2,2020.1.2,Win32,60,right,1.719,2,0.408,0,121,121,75,1,stimuli/objects/barn.jpg,left,old,76,,,,,,,,
,,,,,,,,10,2021-01-15_15h10.03.937,premce3DEU_ses-02_part-02_label-phase2,2020.1.2,Win32,60,left,4.592,2,0.785,0,122,122,46,1,stimuli/objects/entrancegate.jpg,right,new,47,,,,,,,,
,,,,,,,,10,2021-01-15_15h10.03.937,premce3DEU_ses-02_part-02_label-phase2,2020.1.2,Win32,60,right,2.603,2,0.319,0,123,123,144,1,stimuli/objects/trombone.jpg,left,old,145,,,,,,,,
,,,,,,,,10,2021-01-15_15h10.03.937,premce3DEU_ses-02_part-02_label-phase2,2020.1.2,Win32,60,left,3.064,4,0.354,0,124,124,69,1,stimuli/objects/granolabar01.jpg,left,old,70,,,,,,,,
,,,,,,,,10,2021-01-15_15h10.03.937,premce3DEU_ses-02_part-02_label-phase2,2020.1.2,Win32,60,right,1.52,4,2.385,0,125,125,54,1,stimuli/objects/toynutcracker.jpg,right,new,55,,,,,,,,
,,,,,,,,10,2021-01-15_15h10.03.937,premce3DEU_ses-02_part-02_label-phase2,2020.1.2,Win32,60,left,2.033,3,0.489,0,126,126,142,1,stimuli/objects/giraffe.jpg,left,old,143,,,,,,,,
,,,,,,,,10,2021-01-15_15h10.03.937,premce3DEU_ses-02_part-02_label-phase2,2020.1.2,Win32,60,right,3.481,3,2.823,0,127,127,115,1,stimuli/objects/lantern03.jpg,left,old,116,,,,,,,,
,,,,,,,,10,2021-01-15_15h10.03.937,premce3DEU_ses-02_part-02_label-phase2,2020.1.2,Win32,60,left,3.577,4,1.032,0,128,128,64,1,stimuli/objects/dalmatian.jpg,left,old,65,,,,,,,,
,,,,,,,,10,2021-01-15_15h10.03.937,premce3DEU_ses-02_part-02_label-phase2,2020.1.2,Win32,60,left,3.99,3,0.564,0,129,129,102,1,stimuli/objects/forklift.jpg,left,old,103,,,,,,,,
,,,,,,,,10,2021-01-15_15h10.03.937,premce3DEU_ses-02_part-02_label-phase2,2020.1.2,Win32,60,right,1.475,3,0.426,0,130,130,73,1,stimuli/objects/guitarcase.jpg,right,new,74,,,,,,,,
,,,,,,,,10,2021-01-15_15h10.03.937,premce3DEU_ses-02_part-02_label-phase2,2020.1.2,Win32,60,right,1.28,3,0.416,0,131,131,125,1,stimuli/objects/freezer02.jpg,right,new,126,,,,,,,,
,,,,,,,,10,2021-01-15_15h10.03.937,premce3DEU_ses-02_part-02_label-phase2,2020.1.2,Win32,60,right,2.238,2,0.577,0,132,132,72,1,stimuli/objects/totempole.jpg,right,new,73,,,,,,,,
,,,,,,,,10,2021-01-15_15h10.03.937,premce3DEU_ses-02_part-02_label-phase2,2020.1.2,Win32,60,right,4.125,2,0.804,0,133,133,63,1,stimuli/objects/toasteroven.jpg,right,new,64,,,,,,,,
,,,,,,,,10,2021-01-15_15h10.03.937,premce3DEU_ses-02_part-02_label-phase2,2020.1.2,Win32,60,left,4.675,3,0.712,0,134,134,117,1,stimuli/objects/bull.jpg,right,new,118,,,,,,,,
,,,,,,,,10,2021-01-15_15h10.03.937,premce3DEU_ses-02_part-02_label-phase2,2020.1.2,Win32,60,right,4.452,2,2.241,0,135,135,145,1,stimuli/objects/church.jpg,right,new,146,,,,,,,,
,,,,,,,,10,2021-01-15_15h10.03.937,premce3DEU_ses-02_part-02_label-phase2,2020.1.2,Win32,60,left,1.645,3,0.374,0,136,136,107,1,stimuli/objects/musicstand.jpg,left,old,108,,,,,,,,
,,,,,,,,10,2021-01-15_15h10.03.937,premce3DEU_ses-02_part-02_label-phase2,2020.1.2,Win32,60,left,1.391,4,0.547,0,137,137,91,1,stimuli/objects/eyepatch.jpg,left,old,92,,,,,,,,
,,,,,,,,10,2021-01-15_15h10.03.937,premce3DEU_ses-02_part-02_label-phase2,2020.1.2,Win32,60,left,1.735,3,0.534,0,138,138,26,1,stimuli/objects/sledgehammer.jpg,right,new,27,,,,,,,,
,,,,,,,,10,2021-01-15_15h10.03.937,premce3DEU_ses-02_part-02_label-phase2,2020.1.2,Win32,60,right,2.006,2,0.34,0,139,139,123,1,stimuli/objects/lintroller.jpg,left,old,124,,,,,,,,
,,,,,,,,10,2021-01-15_15h10.03.937,premce3DEU_ses-02_part-02_label-phase2,2020.1.2,Win32,60,left,3.548,2,0.268,0,140,140,93,1,stimuli/objects/discoball.jpg,right,new,94,,,,,,,,
,,,,,,,,10,2021-01-15_15h10.03.937,premce3DEU_ses-02_part-02_label-phase2,2020.1.2,Win32,60,left,4.932,2,0.489,0,141,141,31,1,stimuli/objects/file.jpg,left,old,32,,,,,,,,
,,,,,,,,10,2021-01-15_15h10.03.937,premce3DEU_ses-02_part-02_label-phase2,2020.1.2,Win32,60,right,2.172,3,0.708,0,142,142,119,1,stimuli/objects/kite.jpg,right,new,120,,,,,,,,
,,,,,,,,10,2021-01-15_15h10.03.937,premce3DEU_ses-02_part-02_label-phase2,2020.1.2,Win32,60,right,7.504,2,0.507,0,143,143,159,1,stimuli/objects/stairs.jpg,right,new,160,,,,,,,,
,,,,,,,,10,2021-01-15_15h10.03.937,premce3DEU_ses-02_part-02_label-phase2,2020.1.2,Win32,60,right,1.475,2,0.519,0,144,144,52,1,stimuli/objects/turkey.jpg,right,new,53,,,,,,,,
,,,,,,,,10,2021-01-15_15h10.03.937,premce3DEU_ses-02_part-02_label-phase2,2020.1.2,Win32,60,left,3.323,1,0.405,0,145,145,60,1,stimuli/objects/banjo.jpg,right,new,61,,,,,,,,
,,,,,,,,10,2021-01-15_15h10.03.937,premce3DEU_ses-02_part-02_label-phase2,2020.1.2,Win32,60,right,2.183,2,0.406,0,146,146,101,1,stimuli/objects/apron.jpg,left,old,102,,,,,,,,
,,,,,,,,10,2021-01-15_15h10.03.937,premce3DEU_ses-02_part-02_label-phase2,2020.1.2,Win32,60,right,3.391,2,0.37,0,147,147,109,1,stimuli/objects/webcam.jpg,right,new,110,,,,,,,,
,,,,,,,,10,2021-01-15_15h10.03.937,premce3DEU_ses-02_part-02_label-phase2,2020.1.2,Win32,60,right,3.359,3,0.696,0,148,148,128,1,stimuli/objects/makiroll.jpg,right,new,129,,,,,,,,
,,,,,,,,10,2021-01-15_15h10.03.937,premce3DEU_ses-02_part-02_label-phase2,2020.1.2,Win32,60,right,2.246,2,1.221,0,149,149,49,1,stimuli/objects/triangle.jpg,left,old,50,,,,,,,,
,,,,,,,,10,2021-01-15_15h10.03.937,premce3DEU_ses-02_part-02_label-phase2,2020.1.2,Win32,60,left,2.145,2,0.34,0,150,150,19,1,stimuli/objects/crosscountryski.jpg,right,new,20,,,,,,,,
,,,,,,,,10,2021-01-15_15h10.03.937,premce3DEU_ses-02_part-02_label-phase2,2020.1.2,Win32,60,left,2.21,3,1.044,0,151,151,79,1,stimuli/objects/callbell.jpg,left,old,80,,,,,,,,
,,,,,,,,10,2021-01-15_15h10.03.937,premce3DEU_ses-02_part-02_label-phase2,2020.1.2,Win32,60,left,2.082,3,0.798,0,152,152,126,1,stimuli/objects/bat.jpg,right,new,127,,,,,,,,
,,,,,,,,10,2021-01-15_15h10.03.937,premce3DEU_ses-02_part-02_label-phase2,2020.1.2,Win32,60,left,1.244,3,0.519,0,153,153,122,1,stimuli/objects/soccerball.jpg,left,old,123,,,,,,,,
,,,,,,,,10,2021-01-15_15h10.03.937,premce3DEU_ses-02_part-02_label-phase2,2020.1.2,Win32,60,left,2.262,3,0.718,0,154,154,38,1,stimuli/objects/pig.jpg,right,new,39,,,,,,,,
,,,,,,,,10,2021-01-15_15h10.03.937,premce3DEU_ses-02_part-02_label-phase2,2020.1.2,Win32,60,right,1.312,3,0.296,0,155,155,92,1,stimuli/objects/armchair02.jpg,right,new,93,,,,,,,,
,,,,,,,,10,2021-01-15_15h10.03.937,premce3DEU_ses-02_part-02_label-phase2,2020.1.2,Win32,60,right,2.17,2,0.331,0,156,156,57,1,stimuli/objects/cupcake.jpg,right,new,58,,,,,,,,
,,,,,,,,10,2021-01-15_15h10.03.937,premce3DEU_ses-02_part-02_label-phase2,2020.1.2,Win32,60,right,1.485,1,0.538,0,157,157,35,1,stimuli/objects/skihelmet01.jpg,left,old,36,,,,,,,,
,,,,,,,,10,2021-01-15_15h10.03.937,premce3DEU_ses-02_part-02_label-phase2,2020.1.2,Win32,60,left,3.016,2,0.188,0,158,158,74,1,stimuli/objects/windturbine.jpg,left,old,75,,,,,,,,
,,,,,,,,10,2021-01-15_15h10.03.937,premce3DEU_ses-02_part-02_label-phase2,2020.1.2,Win32,60,right,1.391,4,0.607,0,159,159,34,1,stimuli/objects/aquarium.jpg,left,old,35,,,,,,,,
,,,,,,,,10,2021-01-15_15h10.03.937,premce3DEU_ses-02_part-02_label-phase2,2020.1.2,Win32,60,,,,,,,,,,,,,,space,47.853,0,0,0,0,1,ImagesforRecog1.csv
,,,,,,,,10,2021-01-15_15h10.03.937,premce3DEU_ses-02_part-02_label-phase2,2020.1.2,Win32,60,left,2.218,3,0.554,0,0,0,107,1,stimuli/objects/tambourine03.jpg,right,new,268,,,,,,,,
,,,,,,,,10,2021-01-15_15h10.03.937,premce3DEU_ses-02_part-02_label-phase2,2020.1.2,Win32,60,right,3.445,1,0.644,0,1,1,59,1,stimuli/objects/nosmokingsign.jpg,right,new,220,,,,,,,,
,,,,,,,,10,2021-01-15_15h10.03.937,premce3DEU_ses-02_part-02_label-phase2,2020.1.2,Win32,60,right,2.311,2,0.289,0,2,2,4,1,stimuli/objects/blender.jpg,left,old,165,,,,,,,,
,,,,,,,,10,2021-01-15_15h10.03.937,premce3DEU_ses-02_part-02_label-phase2,2020.1.2,Win32,60,right,0.995,2,0.875,0,3,3,150,1,stimuli/objects/strap.jpg,right,new,311,,,,,,,,
,,,,,,,,10,2021-01-15_15h10.03.937,premce3DEU_ses-02_part-02_label-phase2,2020.1.2,Win32,60,right,1.719,3,0.634,0,4,4,45,1,stimuli/objects/siamesecat.jpg,right,new,206,,,,,,,,
,,,,,,,,10,2021-01-15_15h10.03.937,premce3DEU_ses-02_part-02_label-phase2,2020.1.2,Win32,60,right,1.031,3,0.636,0,5,5,88,1,stimuli/objects/toilet.jpg,right,new,249,,,,,,,,
,,,,,,,,10,2021-01-15_15h10.03.937,premce3DEU_ses-02_part-02_label-phase2,2020.1.2,Win32,60,left,1.429,4,1.139,0,6,6,94,1,stimuli/objects/scorpion.jpg,right,new,255,,,,,,,,
,,,,,,,,10,2021-01-15_15h10.03.937,premce3DEU_ses-02_part-02_label-phase2,2020.1.2,Win32,60,left,3.715,3,0.354,0,7,7,80,1,stimuli/objects/floorlamp.jpg,right,new,241,,,,,,,,
,,,,,,,,10,2021-01-15_15h10.03.937,premce3DEU_ses-02_part-02_label-phase2,2020.1.2,Win32,60,right,1.65,2,0.28,0,8,8,15,1,stimuli/objects/stool01.jpg,left,old,176,,,,,,,,
,,,,,,,,10,2021-01-15_15h10.03.937,premce3DEU_ses-02_part-02_label-phase2,2020.1.2,Win32,60,left,3.363,2,0.52,0,9,9,2,1,stimuli/objects/moon.jpg,left,old,163,,,,,,,,
,,,,,,,,10,2021-01-15_15h10.03.937,premce3DEU_ses-02_part-02_label-phase2,2020.1.2,Win32,60,right,2.094,2,0.408,0,10,10,102,1,stimuli/objects/baseballglove.jpg,left,old,263,,,,,,,,
,,,,,,,,10,2021-01-15_15h10.03.937,premce3DEU_ses-02_part-02_label-phase2,2020.1.2,Win32,60,right,2.517,3,0.941,0,11,11,101,1,stimuli/objects/microphone01.jpg,right,new,262,,,,,,,,
,,,,,,,,10,2021-01-15_15h10.03.937,premce3DEU_ses-02_part-02_label-phase2,2020.1.2,Win32,60,right,1.441,3,0.311,0,12,12,47,1,stimuli/objects/candycane01a.jpg,left,old,208,,,,,,,,
,,,,,,,,10,2021-01-15_15h10.03.937,premce3DEU_ses-02_part-02_label-phase2,2020.1.2,Win32,60,left,2.201,2,0.287,0,13,13,0,1,stimuli/objects/hulahoop.jpg,left,old,161,,,,,,,,
,,,,,,,,10,2021-01-15_15h10.03.937,premce3DEU_ses-02_part-02_label-phase2,2020.1.2,Win32,60,left,4.547,3,0.265,0,14,14,61,1,stimuli/objects/parrot01.jpg,right,new,222,,,,,,,,
,,,,,,,,10,2021-01-15_15h10.03.937,premce3DEU_ses-02_part-02_label-phase2,2020.1.2,Win32,60,right,2.144,3,0.427,0,15,15,64,1,stimuli/objects/trojanhorse.jpg,right,new,225,,,,,,,,
,,,,,,,,10,2021-01-15_15h10.03.937,premce3DEU_ses-02_part-02_label-phase2,2020.1.2,Win32,60,right,2.169,3,0.422,0,16,16,23,1,stimuli/objects/graduationcap.jpg,right,new,184,,,,,,,,
,,,,,,,,10,2021-01-15_15h10.03.937,premce3DEU_ses-02_part-02_label-phase2,2020.1.2,Win32,60,right,2.849,3,0.394,0,17,17,99,1,stimuli/objects/bacon.jpg,left,old,260,,,,,,,,
,,,,,,,,10,2021-01-15_15h10.03.937,premce3DEU_ses-02_part-02_label-phase2,2020.1.2,Win32,60,left,1.996,3,0.627,0,18,18,24,1,stimuli/objects/jaguar.jpg,left,old,185,,,,,,,,
,,,,,,,,10,2021-01-15_15h10.03.937,premce3DEU_ses-02_part-02_label-phase2,2020.1.2,Win32,60,right,2.283,1,0.837,0,19,19,96,1,stimuli/objects/hockeystick.jpg,left,old,257,,,,,,,,
,,,,,,,,10,2021-01-15_15h10.03.937,premce3DEU_ses-02_part-02_label-phase2,2020.1.2,Win32,60,right,2.514,2,0.225,0,20,20,63,1,stimuli/objects/pin.jpg,right,new,224,,,,,,,,
,,,,,,,,10,2021-01-15_15h10.03.937,premce3DEU_ses-02_part-02_label-phase2,2020.1.2,Win32,60,left,2.295,2,0.369,0,21,21,54,1,stimuli/objects/acousticguitar02.jpg,right,new,215,,,,,,,,
,,,,,,,,10,2021-01-15_15h10.03.937,premce3DEU_ses-02_part-02_label-phase2,2020.1.2,Win32,60,left,2.193,3,1.11,0,22,22,97,1,stimuli/objects/greywolf.jpg,left,old,258,,,,,,,,
,,,,,,,,10,2021-01-15_15h10.03.937,premce3DEU_ses-02_part-02_label-phase2,2020.1.2,Win32,60,right,1.547,2,0.448,0,23,23,81,1,stimuli/objects/raccoon.jpg,right,new,242,,,,,,,,
,,,,,,,,10,2021-01-15_15h10.03.937,premce3DEU_ses-02_part-02_label-phase2,2020.1.2,Win32,60,left,1.628,4,0.506,0,24,24,139,1,stimuli/objects/locomotive.jpg,left,old,300,,,,,,,,
,,,,,,,,10,2021-01-15_15h10.03.937,premce3DEU_ses-02_part-02_label-phase2,2020.1.2,Win32,60,right,2.234,3,1.425,0,25,25,43,1,stimuli/objects/poolcue.jpg,right,new,204,,,,,,,,
,,,,,,,,10,2021-01-15_15h10.03.937,premce3DEU_ses-02_part-02_label-phase2,2020.1.2,Win32,60,right,1.531,2,0.453,0,26,26,103,1,stimuli/objects/seagull.jpg,left,old,264,,,,,,,,
,,,,,,,,10,2021-01-15_15h10.03.937,premce3DEU_ses-02_part-02_label-phase2,2020.1.2,Win32,60,right,2.408,1,0.389,0,27,27,74,1,stimuli/objects/turnstile.jpg,right,new,235,,,,,,,,
,,,,,,,,10,2021-01-15_15h10.03.937,premce3DEU_ses-02_part-02_label-phase2,2020.1.2,Win32,60,left,2.385,3,0.744,0,28,28,44,1,stimuli/objects/donut.jpg,left,old,205,,,,,,,,
,,,,,,,,10,2021-01-15_15h10.03.937,premce3DEU_ses-02_part-02_label-phase2,2020.1.2,Win32,60,right,1.248,2,0.3,0,29,29,158,1,stimuli/objects/bowrake.jpg,right,new,319,,,,,,,,
,,,,,,,,10,2021-01-15_15h10.03.937,premce3DEU_ses-02_part-02_label-phase2,2020.1.2,Win32,60,right,2.187,2,0.338,0,30,30,36,1,stimuli/objects/sandcastle.jpg,left,old,197,,,,,,,,
,,,,,,,,10,2021-01-15_15h10.03.937,premce3DEU_ses-02_part-02_label-phase2,2020.1.2,Win32,60,left,5.283,3,0.391,0,31,31,33,1,stimuli/objects/noparkingsign.jpg,right,new,194,,,,,,,,
,,,,,,,,10,2021-01-15_15h10.03.937,premce3DEU_ses-02_part-02_label-phase2,2020.1.2,Win32,60,left,2.933,4,0.571,0,32,32,5,1,stimuli/objects/wheelchair.jpg,left,old,166,,,,,,,,
,,,,,,,,10,2021-01-15_15h10.03.937,premce3DEU_ses-02_part-02_label-phase2,2020.1.2,Win32,60,left,3.564,3,0.375,0,33,33,41,1,stimuli/objects/zebra.jpg,left,old,202,,,,,,,,
,,,,,,,,10,2021-01-15_15h10.03.937,premce3DEU_ses-02_part-02_label-phase2,2020.1.2,Win32,60,right,1.92,2,0.257,0,34,34,58,1,stimuli/objects/tricycle.jpg,left,old,219,,,,,,,,
,,,,,,,,10,2021-01-15_15h10.03.937,premce3DEU_ses-02_part-02_label-phase2,2020.1.2,Win32,60,right,1.412,2,0.44,0,35,35,89,1,stimuli/objects/cruiseship.jpg,left,old,250,,,,,,,,
,,,,,,,,10,2021-01-15_15h10.03.937,premce3DEU_ses-02_part-02_label-phase2,2020.1.2,Win32,60,right,1.311,3,0.958,0,36,36,30,1,stimuli/objects/key07.jpg,left,old,191,,,,,,,,
,,,,,,,,10,2021-01-15_15h10.03.937,premce3DEU_ses-02_part-02_label-phase2,2020.1.2,Win32,60,right,1.75,3,0.368,0,37,37,32,1,stimuli/objects/cross01.jpg,right,new,193,,,,,,,,
,,,,,,,,10,2021-01-15_15h10.03.937,premce3DEU_ses-02_part-02_label-phase2,2020.1.2,Win32,60,right,5.906,1,0.782,0,38,38,90,1,stimuli/objects/battleaxe.jpg,left,old,251,,,,,,,,
,,,,,,,,10,2021-01-15_15h10.03.937,premce3DEU_ses-02_part-02_label-phase2,2020.1.2,Win32,60,left,4.303,2,0.249,0,39,39,114,1,stimuli/objects/cymbal.jpg,left,old,275,,,,,,,,
,,,,,,,,10,2021-01-15_15h10.03.937,premce3DEU_ses-02_part-02_label-phase2,2020.1.2,Win32,60,right,1.727,3,0.334,0,40,40,133,1,stimuli/objects/kiwi03.jpg,right,new,294,,,,,,,,
,,,,,,,,10,2021-01-15_15h10.03.937,premce3DEU_ses-02_part-02_label-phase2,2020.1.2,Win32,60,right,1.016,2,0.383,0,41,41,75,1,stimuli/objects/bookshelf.jpg,left,old,236,,,,,,,,
,,,,,,,,10,2021-01-15_15h10.03.937,premce3DEU_ses-02_part-02_label-phase2,2020.1.2,Win32,60,right,1.602,2,0.422,0,42,42,55,1,stimuli/objects/dogsled.jpg,left,old,216,,,,,,,,
,,,,,,,,10,2021-01-15_15h10.03.937,premce3DEU_ses-02_part-02_label-phase2,2020.1.2,Win32,60,left,2.821,4,0.812,0,43,43,111,1,stimuli/objects/jellybean.jpg,left,old,272,,,,,,,,
,,,,,,,,10,2021-01-15_15h10.03.937,premce3DEU_ses-02_part-02_label-phase2,2020.1.2,Win32,60,right,1.495,2,0.334,0,44,44,143,1,stimuli/objects/taxisign.jpg,right,new,304,,,,,,,,
,,,,,,,,10,2021-01-15_15h10.03.937,premce3DEU_ses-02_part-02_label-phase2,2020.1.2,Win32,60,right,2.289,3,0.442,0,45,45,78,1,stimuli/objects/hockeypuck.jpg,left,old,239,,,,,,,,
,,,,,,,,10,2021-01-15_15h10.03.937,premce3DEU_ses-02_part-02_label-phase2,2020.1.2,Win32,60,left,2.655,4,0.41,0,46,46,60,1,stimuli/objects/hammerheadshark.jpg,right,new,221,,,,,,,,
,,,,,,,,10,2021-01-15_15h10.03.937,premce3DEU_ses-02_part-02_label-phase2,2020.1.2,Win32,60,right,1.486,3,0.537,0,47,47,157,1,stimuli/objects/eagle.jpg,right,new,318,,,,,,,,
,,,,,,,,10,2021-01-15_15h10.03.937,premce3DEU_ses-02_part-02_label-phase2,2020.1.2,Win32,60,left,1.602,4,0.354,0,48,48,147,1,stimuli/objects/bleachers.jpg,left,old,308,,,,,,,,
,,,,,,,,10,2021-01-15_15h10.03.937,premce3DEU_ses-02_part-02_label-phase2,2020.1.2,Win32,60,right,3.558,3,1.055,0,49,49,137,1,stimuli/objects/waterfall.jpg,right,new,298,,,,,,,,
,,,,,,,,10,2021-01-15_15h10.03.937,premce3DEU_ses-02_part-02_label-phase2,2020.1.2,Win32,60,right,1.351,3,0.775,0,50,50,153,1,stimuli/objects/fluorescentlightbulb.jpg,left,old,314,,,,,,,,
,,,,,,,,10,2021-01-15_15h10.03.937,premce3DEU_ses-02_part-02_label-phase2,2020.1.2,Win32,60,left,2.031,3,0.318,0,51,51,67,1,stimuli/objects/snowshovel.jpg,left,old,228,,,,,,,,
,,,,,,,,10,2021-01-15_15h10.03.937,premce3DEU_ses-02_part-02_label-phase2,2020.1.2,Win32,60,right,1.746,3,3.305,0,52,52,76,1,stimuli/objects/statue.jpg,right,new,237,,,,,,,,
,,,,,,,,10,2021-01-15_15h10.03.937,premce3DEU_ses-02_part-02_label-phase2,2020.1.2,Win32,60,left,3.197,3,1.079,0,53,53,135,1,stimuli/objects/penguin.jpg,right,new,296,,,,,,,,
,,,,,,,,10,2021-01-15_15h10.03.937,premce3DEU_ses-02_part-02_label-phase2,2020.1.2,Win32,60,left,1.882,4,0.341,0,54,54,42,1,stimuli/objects/asianelephant.jpg,left,old,203,,,,,,,,
,,,,,,,,10,2021-01-15_15h10.03.937,premce3DEU_ses-02_part-02_label-phase2,2020.1.2,Win32,60,right,1.317,3,0.403,0,55,55,125,1,stimuli/objects/whiteout.jpg,left,old,286,,,,,,,,
,,,,,,,,10,2021-01-15_15h10.03.937,premce3DEU_ses-02_part-02_label-phase2,2020.1.2,Win32,60,right,2.375,2,0.392,0,56,56,128,1,stimuli/objects/chime.jpg,left,old,289,,,,,,,,
,,,,,,,,10,2021-01-15_15h10.03.937,premce3DEU_ses-02_part-02_label-phase2,2020.1.2,Win32,60,left,5.94,2,0.265,0,57,57,16,1,stimuli/objects/dartboard.jpg,left,old,177,,,,,,,,
,,,,,,,,10,2021-01-15_15h10.03.937,premce3DEU_ses-02_part-02_label-phase2,2020.1.2,Win32,60,left,1.445,1,0.668,0,58,58,152,1,stimuli/objects/harmonica.jpg,right,new,313,,,,,,,,
,,,,,,,,10,2021-01-15_15h10.03.937,premce3DEU_ses-02_part-02_label-phase2,2020.1.2,Win32,60,right,4.201,3,0.554,0,59,59,50,1,stimuli/objects/cowbell.jpg,right,new,211,,,,,,,,
,,,,,,,,10,2021-01-15_15h10.03.937,premce3DEU_ses-02_part-02_label-phase2,2020.1.2,Win32,60,left,2.372,1,0.422,0,60,60,148,1,stimuli/objects/snowglobe.jpg,left,old,309,,,,,,,,
,,,,,,,,10,2021-01-15_15h10.03.937,premce3DEU_ses-02_part-02_label-phase2,2020.1.2,Win32,60,right,1.903,2,0.288,0,61,61,141,1,stimuli/objects/gong.jpg,left,old,302,,,,,,,,
,,,,,,,,10,2021-01-15_15h10.03.937,premce3DEU_ses-02_part-02_label-phase2,2020.1.2,Win32,60,left,2.045,2,0.255,0,62,62,131,1,stimuli/objects/boxingglove01.jpg,right,new,292,,,,,,,,
,,,,,,,,10,2021-01-15_15h10.03.937,premce3DEU_ses-02_part-02_label-phase2,2020.1.2,Win32,60,left,1.967,3,0.195,0,63,63,156,1,stimuli/objects/shovel01.jpg,left,old,317,,,,,,,,
,,,,,,,,10,2021-01-15_15h10.03.937,premce3DEU_ses-02_part-02_label-phase2,2020.1.2,Win32,60,right,1.671,2,0.1,0,64,64,116,1,stimuli/objects/rollerblade.jpg,left,old,277,,,,,,,,
,,,,,,,,10,2021-01-15_15h10.03.937,premce3DEU_ses-02_part-02_label-phase2,2020.1.2,Win32,60,right,1.693,4,0.57,0,65,65,65,1,stimuli/objects/spacerover.jpg,right,new,226,,,,,,,,
,,,,,,,,10,2021-01-15_15h10.03.937,premce3DEU_ses-02_part-02_label-phase2,2020.1.2,Win32,60,right,3.696,2,2.104,0,66,66,140,1,stimuli/objects/treadmill.jpg,left,old,301,,,,,,,,
,,,,,,,,10,2021-01-15_15h10.03.937,premce3DEU_ses-02_part-02_label-phase2,2020.1.2,Win32,60,right,1.571,3,0.577,0,67,67,93,1,stimuli/objects/slushiemachine.jpg,right,new,254,,,,,,,,
,,,,,,,,10,2021-01-15_15h10.03.937,premce3DEU_ses-02_part-02_label-phase2,2020.1.2,Win32,60,right,1.371,3,0.319,0,68,68,144,1,stimuli/objects/walkietalkie.jpg,right,new,305,,,,,,,,
,,,,,,,,10,2021-01-15_15h10.03.937,premce3DEU_ses-02_part-02_label-phase2,2020.1.2,Win32,60,right,2.765,4,0.045,0,69,69,12,1,stimuli/objects/musicsheet.jpg,right,new,173,,,,,,,,
,,,,,,,,10,2021-01-15_15h10.03.937,premce3DEU_ses-02_part-02_label-phase2,2020.1.2,Win32,60,right,1.308,4,0.364,0,70,70,109,1,stimuli/objects/spiderweb.jpg,right,new,270,,,,,,,,
,,,,,,,,10,2021-01-15_15h10.03.937,premce3DEU_ses-02_part-02_label-phase2,2020.1.2,Win32,60,left,3.329,3,0.347,0,71,71,121,1,stimuli/objects/shield02.jpg,right,new,282,,,,,,,,
,,,,,,,,10,2021-01-15_15h10.03.937,premce3DEU_ses-02_part-02_label-phase2,2020.1.2,Win32,60,left,1.357,3,0.322,0,72,72,145,1,stimuli/objects/rooster.jpg,right,new,306,,,,,,,,
,,,,,,,,10,2021-01-15_15h10.03.937,premce3DEU_ses-02_part-02_label-phase2,2020.1.2,Win32,60,right,1.252,2,0.619,0,73,73,115,1,stimuli/objects/witchhat.jpg,left,old,276,,,,,,,,
,,,,,,,,10,2021-01-15_15h10.03.937,premce3DEU_ses-02_part-02_label-phase2,2020.1.2,Win32,60,right,1.168,1,0.319,0,74,74,136,1,stimuli/objects/mouse.jpg,right,new,297,,,,,,,,
,,,,,,,,10,2021-01-15_15h10.03.937,premce3DEU_ses-02_part-02_label-phase2,2020.1.2,Win32,60,right,1.385,2,0.256,0,75,75,18,1,stimuli/objects/showerhead01.jpg,left,old,179,,,,,,,,
,,,,,,,,10,2021-01-15_15h10.03.937,premce3DEU_ses-02_part-02_label-phase2,2020.1.2,Win32,60,left,2.81,3,0.342,0,76,76,40,1,stimuli/objects/beehive.jpg,right,new,201,,,,,,,,
,,,,,,,,10,2021-01-15_15h10.03.937,premce3DEU_ses-02_part-02_label-phase2,2020.1.2,Win32,60,right,1.843,2,0.289,0,77,77,39,1,stimuli/objects/desktopcomputer.jpg,left,old,200,,,,,,,,
,,,,,,,,10,2021-01-15_15h10.03.937,premce3DEU_ses-02_part-02_label-phase2,2020.1.2,Win32,60,left,2.018,2,0.122,0,78,78,35,1,stimuli/objects/xylophone.jpg,left,old,196,,,,,,,,
,,,,,,,,10,2021-01-15_15h10.03.937,premce3DEU_ses-02_part-02_label-phase2,2020.1.2,Win32,60,right,2.077,2,0.178,0,79,79,14,1,stimuli/objects/ipad02.jpg,left,old,175,,,,,,,,
,,,,,,,,10,2021-01-15_15h10.03.937,premce3DEU_ses-02_part-02_label-phase2,2020.1.2,Win32,60,left,1.535,3,0.356,0,80,80,37,1,stimuli/objects/football.jpg,left,old,198,,,,,,,,
,,,,,,,,10,2021-01-15_15h10.03.937,premce3DEU_ses-02_part-02_label-phase2,2020.1.2,Win32,60,left,3.055,3,0.675,0,81,81,112,1,stimuli/objects/hotdog.jpg,left,old,273,,,,,,,,
,,,,,,,,10,2021-01-15_15h10.03.937,premce3DEU_ses-02_part-02_label-phase2,2020.1.2,Win32,60,right,4.221,2,0.169,0,82,82,138,1,stimuli/objects/ladybug03.jpg,right,new,299,,,,,,,,
,,,,,,,,10,2021-01-15_15h10.03.937,premce3DEU_ses-02_part-02_label-phase2,2020.1.2,Win32,60,right,1.045,1,0.739,0,83,83,69,1,stimuli/objects/bumpercar.jpg,right,new,230,,,,,,,,
,,,,,,,,10,2021-01-15_15h10.03.937,premce3DEU_ses-02_part-02_label-phase2,2020.1.2,Win32,60,right,1.715,2,0.194,0,84,84,113,1,stimuli/objects/bluejay.jpg,right,new,274,,,,,,,,
,,,,,,,,10,2021-01-15_15h10.03.937,premce3DEU_ses-02_part-02_label-phase2,2020.1.2,Win32,60,right,3.653,2,0.131,0,85,85,66,1,stimuli/objects/tricornhat.jpg,right,new,227,,,,,,,,
,,,,,,,,10,2021-01-15_15h10.03.937,premce3DEU_ses-02_part-02_label-phase2,2020.1.2,Win32,60,right,1.031,3,1.266,0,86,86,86,1,stimuli/objects/trafficlight.jpg,left,old,247,,,,,,,,
,,,,,,,,10,2021-01-15_15h10.03.937,premce3DEU_ses-02_part-02_label-phase2,2020.1.2,Win32,60,right,2.613,2,0.302,0,87,87,146,1,stimuli/objects/tie02.jpg,left,old,307,,,,,,,,
,,,,,,,,10,2021-01-15_15h10.03.937,premce3DEU_ses-02_part-02_label-phase2,2020.1.2,Win32,60,right,1.689,3,0.341,0,88,88,22,1,stimuli/objects/crab01.jpg,left,old,183,,,,,,,,
,,,,,,,,10,2021-01-15_15h10.03.937,premce3DEU_ses-02_part-02_label-phase2,2020.1.2,Win32,60,left,2.078,2,0.445,0,89,89,85,1,stimuli/objects/skiboot01a.jpg,left,old,246,,,,,,,,
,,,,,,,,10,2021-01-15_15h10.03.937,premce3DEU_ses-02_part-02_label-phase2,2020.1.2,Win32,60,right,1.345,2,0.303,0,90,90,1,1,stimuli/objects/tent.jpg,left,old,162,,,,,,,,
,,,,,,,,10,2021-01-15_15h10.03.937,premce3DEU_ses-02_part-02_label-phase2,2020.1.2,Win32,60,left,5.547,3,5.672,0,91,91,52,1,stimuli/objects/acorn.jpg,left,old,213,,,,,,,,
,,,,,,,,10,2021-01-15_15h10.03.937,premce3DEU_ses-02_part-02_label-phase2,2020.1.2,Win32,60,left,2.963,1,0.521,0,92,92,25,1,stimuli/objects/scooter.jpg,right,new,186,,,,,,,,
,,,,,,,,10,2021-01-15_15h10.03.937,premce3DEU_ses-02_part-02_label-phase2,2020.1.2,Win32,60,right,2.346,2,0.256,0,93,93,127,1,stimuli/objects/shelf.jpg,right,new,288,,,,,,,,
,,,,,,,,10,2021-01-15_15h10.03.937,premce3DEU_ses-02_part-02_label-phase2,2020.1.2,Win32,60,left,1.8,4,0.396,0,94,94,117,1,stimuli/objects/fingerprint.jpg,left,old,278,,,,,,,,
,,,,,,,,10,2021-01-15_15h10.03.937,premce3DEU_ses-02_part-02_label-phase2,2020.1.2,Win32,60,right,2.813,2,0.22,0,95,95,26,1,stimuli/objects/schoolbus.jpg,right,new,187,,,,,,,,
,,,,,,,,10,2021-01-15_15h10.03.937,premce3DEU_ses-02_part-02_label-phase2,2020.1.2,Win32,60,right,0.918,2,0.255,0,96,96,84,1,stimuli/objects/carbattery.jpg,right,new,245,,,,,,,,
,,,,,,,,10,2021-01-15_15h10.03.937,premce3DEU_ses-02_part-02_label-phase2,2020.1.2,Win32,60,left,1.61,3,0.337,0,97,97,155,1,stimuli/objects/fishingrod.jpg,left,old,316,,,,,,,,
,,,,,,,,10,2021-01-15_15h10.03.937,premce3DEU_ses-02_part-02_label-phase2,2020.1.2,Win32,60,left,1.912,4,0.917,0,98,98,142,1,stimuli/objects/lightswitch01.jpg,left,old,303,,,,,,,,
,,,,,,,,10,2021-01-15_15h10.03.937,premce3DEU_ses-02_part-02_label-phase2,2020.1.2,Win32,60,right,1.971,2,0.337,0,99,99,9,1,stimuli/objects/flag.jpg,right,new,170,,,,,,,,
,,,,,,,,10,2021-01-15_15h10.03.937,premce3DEU_ses-02_part-02_label-phase2,2020.1.2,Win32,60,right,0.929,2,0.316,0,100,100,53,1,stimuli/objects/parachute.jpg,right,new,214,,,,,,,,
,,,,,,,,10,2021-01-15_15h10.03.937,premce3DEU_ses-02_part-02_label-phase2,2020.1.2,Win32,60,right,2.834,2,0.208,0,101,101,71,1,stimuli/objects/tennisracket.jpg,right,new,232,,,,,,,,
,,,,,,,,10,2021-01-15_15h10.03.937,premce3DEU_ses-02_part-02_label-phase2,2020.1.2,Win32,60,left,1.883,4,0.256,0,102,102,7,1,stimuli/objects/bolt01a.jpg,left,old,168,,,,,,,,
,,,,,,,,10,2021-01-15_15h10.03.937,premce3DEU_ses-02_part-02_label-phase2,2020.1.2,Win32,60,right,2.483,2,0.384,0,103,103,34,1,stimuli/objects/shelves.jpg,left,old,195,,,,,,,,
,,,,,,,,10,2021-01-15_15h10.03.937,premce3DEU_ses-02_part-02_label-phase2,2020.1.2,Win32,60,right,1.312,3,0.17,0,104,104,51,1,stimuli/objects/kangaroo01.jpg,right,new,212,,,,,,,,
,,,,,,,,10,2021-01-15_15h10.03.937,premce3DEU_ses-02_part-02_label-phase2,2020.1.2,Win32,60,left,1.533,4,0.339,0,105,105,154,1,stimuli/objects/frisbee.jpg,left,old,315,,,,,,,,
,,,,,,,,10,2021-01-15_15h10.03.937,premce3DEU_ses-02_part-02_label-phase2,2020.1.2,Win32,60,left,1.719,2,1.175,0,106,106,57,1,stimuli/objects/spaghetti01.jpg,right,new,218,,,,,,,,
,,,,,,,,10,2021-01-15_15h10.03.937,premce3DEU_ses-02_part-02_label-phase2,2020.1.2,Win32,60,left,3.038,2,0.576,0,107,107,108,1,stimuli/objects/cork02.jpg,left,old,269,,,,,,,,
,,,,,,,,10,2021-01-15_15h10.03.937,premce3DEU_ses-02_part-02_label-phase2,2020.1.2,Win32,60,right,1.509,3,0.307,0,108,108,70,1,stimuli/objects/cormorant.jpg,right,new,231,,,,,,,,
,,,,,,,,10,2021-01-15_15h10.03.937,premce3DEU_ses-02_part-02_label-phase2,2020.1.2,Win32,60,right,0.872,3,0.477,0,109,109,31,1,stimuli/objects/horseshoe.jpg,right,new,192,,,,,,,,
,,,,,,,,10,2021-01-15_15h10.03.937,premce3DEU_ses-02_part-02_label-phase2,2020.1.2,Win32,60,left,2.316,2,0.351,0,110,110,95,1,stimuli/objects/sealion.jpg,right,new,256,,,,,,,,
,,,,,,,,10,2021-01-15_15h10.03.937,premce3DEU_ses-02_part-02_label-phase2,2020.1.2,Win32,60,right,1.725,2,0.256,0,111,111,105,1,stimuli/objects/beerbottle.jpg,left,old,266,,,,,,,,
,,,,,,,,10,2021-01-15_15h10.03.937,premce3DEU_ses-02_part-02_label-phase2,2020.1.2,Win32,60,left,3.249,4,0.462,0,112,112,49,1,stimuli/objects/surfboard.jpg,left,old,210,,,,,,,,
,,,,,,,,10,2021-01-15_15h10.03.937,premce3DEU_ses-02_part-02_label-phase2,2020.1.2,Win32,60,right,1.775,3,0.364,0,113,113,21,1,stimuli/objects/gorilla.jpg,right,new,182,,,,,,,,
,,,,,,,,10,2021-01-15_15h10.03.937,premce3DEU_ses-02_part-02_label-phase2,2020.1.2,Win32,60,left,2.402,4,0.367,0,114,114,56,1,stimuli/objects/toyanimal05.jpg,left,old,217,,,,,,,,
,,,,,,,,10,2021-01-15_15h10.03.937,premce3DEU_ses-02_part-02_label-phase2,2020.1.2,Win32,60,right,1.2,3,0.771,0,115,115,83,1,stimuli/objects/recyclingbin.jpg,left,old,244,,,,,,,,
,,,,,,,,10,2021-01-15_15h10.03.937,premce3DEU_ses-02_part-02_label-phase2,2020.1.2,Win32,60,right,1.304,3,0.428,0,116,116,38,1,stimuli/objects/bread.jpg,right,new,199,,,,,,,,
,,,,,,,,10,2021-01-15_15h10.03.937,premce3DEU_ses-02_part-02_label-phase2,2020.1.2,Win32,60,right,2.167,2,0.522,0,117,117,119,1,stimuli/objects/sandbarshark.jpg,right,new,280,,,,,,,,
,,,,,,,,10,2021-01-15_15h10.03.937,premce3DEU_ses-02_part-02_label-phase2,2020.1.2,Win32,60,left,2.181,2,0.312,0,118,118,159,1,stimuli/objects/footballhelmet.jpg,left,old,320,,,,,,,,
,,,,,,,,10,2021-01-15_15h10.03.937,premce3DEU_ses-02_part-02_label-phase2,2020.1.2,Win32,60,left,1.49,1,0.188,0,119,119,124,1,stimuli/objects/swing.jpg,right,new,285,,,,,,,,
,,,,,,,,10,2021-01-15_15h10.03.937,premce3DEU_ses-02_part-02_label-phase2,2020.1.2,Win32,60,left,2.519,4,0.415,0,120,120,79,1,stimuli/objects/polarbear.jpg,left,old,240,,,,,,,,
,,,,,,,,10,2021-01-15_15h10.03.937,premce3DEU_ses-02_part-02_label-phase2,2020.1.2,Win32,60,right,2.064,2,0.397,0,121,121,110,1,stimuli/objects/funnel.jpg,right,new,271,,,,,,,,
,,,,,,,,10,2021-01-15_15h10.03.937,premce3DEU_ses-02_part-02_label-phase2,2020.1.2,Win32,60,right,1.353,3,0.857,0,122,122,149,1,stimuli/objects/mortarandpestle.jpg,right,new,310,,,,,,,,
,,,,,,,,10,2021-01-15_15h10.03.937,premce3DEU_ses-02_part-02_label-phase2,2020.1.2,Win32,60,left,2.426,4,0.312,0,123,123,10,1,stimuli/objects/spicerack.jpg,left,old,171,,,,,,,,
,,,,,,,,10,2021-01-15_15h10.03.937,premce3DEU_ses-02_part-02_label-phase2,2020.1.2,Win32,60,right,1.076,3,2.891,0,124,124,91,1,stimuli/objects/shed02.jpg,right,new,252,,,,,,,,
,,,,,,,,10,2021-01-15_15h10.03.937,premce3DEU_ses-02_part-02_label-phase2,2020.1.2,Win32,60,left,1.795,2,0.399,0,125,125,104,1,stimuli/objects/rockingchair.jpg,left,old,265,,,,,,,,
,,,,,,,,10,2021-01-15_15h10.03.937,premce3DEU_ses-02_part-02_label-phase2,2020.1.2,Win32,60,left,1.82,2,0.307,0,126,126,46,1,stimuli/objects/kneepad01c.jpg,right,new,207,,,,,,,,
,,,,,,,,10,2021-01-15_15h10.03.937,premce3DEU_ses-02_part-02_label-phase2,2020.1.2,Win32,60,right,1.464,2,0.348,0,127,127,132,1,stimuli/objects/windshieldwiper02.jpg,left,old,293,,,,,,,,
,,,,,,,,10,2021-01-15_15h10.03.937,premce3DEU_ses-02_part-02_label-phase2,2020.1.2,Win32,60,left,2.264,3,0.349,0,128,128,82,1,stimuli/objects/duck01.jpg,left,old,243,,,,,,,,
,,,,,,,,10,2021-01-15_15h10.03.937,premce3DEU_ses-02_part-02_label-phase2,2020.1.2,Win32,60,right,3.044,2,0.27,0,129,129,134,1,stimuli/objects/bikelock.jpg,right,new,295,,,,,,,,
,,,,,,,,10,2021-01-15_15h10.03.937,premce3DEU_ses-02_part-02_label-phase2,2020.1.2,Win32,60,left,2.839,3,0.22,0,130,130,77,1,stimuli/objects/electricguitar01.jpg,left,old,238,,,,,,,,
,,,,,,,,10,2021-01-15_15h10.03.937,premce3DEU_ses-02_part-02_label-phase2,2020.1.2,Win32,60,left,4.285,2,1.302,0,131,131,29,1,stimuli/objects/steeringwheel.jpg,right,new,190,,,,,,,,
,,,,,,,,10,2021-01-15_15h10.03.937,premce3DEU_ses-02_part-02_label-phase2,2020.1.2,Win32,60,right,1.529,2,0.814,0,132,132,19,1,stimuli/objects/zipper.jpg,right,new,180,,,,,,,,
,,,,,,,,10,2021-01-15_15h10.03.937,premce3DEU_ses-02_part-02_label-phase2,2020.1.2,Win32,60,left,1.549,3,0.288,0,133,133,11,1,stimuli/objects/dolphin01.jpg,left,old,172,,,,,,,,
,,,,,,,,10,2021-01-15_15h10.03.937,premce3DEU_ses-02_part-02_label-phase2,2020.1.2,Win32,60,right,2.799,3,1,0,134,134,62,1,stimuli/objects/painting.jpg,right,new,223,,,,,,,,
,,,,,,,,10,2021-01-15_15h10.03.937,premce3DEU_ses-02_part-02_label-phase2,2020.1.2,Win32,60,right,3.215,1,1.489,0,135,135,106,1,stimuli/objects/squirrel.jpg,right,new,267,,,,,,,,
,,,,,,,,10,2021-01-15_15h10.03.937,premce3DEU_ses-02_part-02_label-phase2,2020.1.2,Win32,60,right,2.386,2,0.891,0,136,136,151,1,stimuli/objects/jellyfish.jpg,left,old,312,,,,,,,,
,,,,,,,,10,2021-01-15_15h10.03.937,premce3DEU_ses-02_part-02_label-phase2,2020.1.2,Win32,60,left,2.079,2,0.409,0,137,137,87,1,stimuli/objects/chipmunk.jpg,left,old,248,,,,,,,,
,,,,,,,,10,2021-01-15_15h10.03.937,premce3DEU_ses-02_part-02_label-phase2,2020.1.2,Win32,60,right,1.947,3,0.29,0,138,138,27,1,stimuli/objects/tombstone.jpg,right,new,188,,,,,,,,
,,,,,,,,10,2021-01-15_15h10.03.937,premce3DEU_ses-02_part-02_label-phase2,2020.1.2,Win32,60,right,1.839,3,0.088,0,139,139,73,1,stimuli/objects/barrel01.jpg,left,old,234,,,,,,,,
,,,,,,,,10,2021-01-15_15h10.03.937,premce3DEU_ses-02_part-02_label-phase2,2020.1.2,Win32,60,right,2.719,2,0.611,0,140,140,8,1,stimuli/objects/cloud.jpg,left,old,169,,,,,,,,
,,,,,,,,10,2021-01-15_15h10.03.937,premce3DEU_ses-02_part-02_label-phase2,2020.1.2,Win32,60,left,3.39,3,0.588,0,141,141,129,1,stimuli/objects/escalator.jpg,left,old,290,,,,,,,,
,,,,,,,,10,2021-01-15_15h10.03.937,premce3DEU_ses-02_part-02_label-phase2,2020.1.2,Win32,60,right,1.328,3,0.316,0,142,142,17,1,stimuli/objects/saltshaker03a.jpg,right,new,178,,,,,,,,
,,,,,,,,10,2021-01-15_15h10.03.937,premce3DEU_ses-02_part-02_label-phase2,2020.1.2,Win32,60,left,1.92,2,0.242,0,143,143,98,1,stimuli/objects/cashregister01.jpg,left,old,259,,,,,,,,
,,,,,,,,10,2021-01-15_15h10.03.937,premce3DEU_ses-02_part-02_label-phase2,2020.1.2,Win32,60,right,1.312,2,0.35,0,144,144,126,1,stimuli/objects/birdfeeder.jpg,left,old,287,,,,,,,,
,,,,,,,,10,2021-01-15_15h10.03.937,premce3DEU_ses-02_part-02_label-phase2,2020.1.2,Win32,60,right,1.066,2,0.45,0,145,145,100,1,stimuli/objects/doubledoors.jpg,left,old,261,,,,,,,,
,,,,,,,,10,2021-01-15_15h10.03.937,premce3DEU_ses-02_part-02_label-phase2,2020.1.2,Win32,60,left,2.526,4,0.395,0,146,146,130,1,stimuli/objects/pirateflag.jpg,left,old,291,,,,,,,,
,,,,,,,,10,2021-01-15_15h10.03.937,premce3DEU_ses-02_part-02_label-phase2,2020.1.2,Win32,60,right,2.475,2,0.488,0,147,147,68,1,stimuli/objects/drumset.jpg,right,new,229,,,,,,,,
,,,,,,,,10,2021-01-15_15h10.03.937,premce3DEU_ses-02_part-02_label-phase2,2020.1.2,Win32,60,right,1.687,3,0.518,0,148,148,92,1,stimuli/objects/mirror02.jpg,left,old,253,,,,,,,,
,,,,,,,,10,2021-01-15_15h10.03.937,premce3DEU_ses-02_part-02_label-phase2,2020.1.2,Win32,60,right,1.133,3,0.349,0,149,149,118,1,stimuli/objects/wallclock.jpg,right,new,279,,,,,,,,
,,,,,,,,10,2021-01-15_15h10.03.937,premce3DEU_ses-02_part-02_label-phase2,2020.1.2,Win32,60,right,1.741,4,0.734,0,150,150,122,1,stimuli/objects/lip.jpg,right,new,283,,,,,,,,
,,,,,,,,10,2021-01-15_15h10.03.937,premce3DEU_ses-02_part-02_label-phase2,2020.1.2,Win32,60,right,3.721,3,0.289,0,151,151,72,1,stimuli/objects/doghouse.jpg,left,old,233,,,,,,,,
,,,,,,,,10,2021-01-15_15h10.03.937,premce3DEU_ses-02_part-02_label-phase2,2020.1.2,Win32,60,left,3.548,3,0.64,0,152,152,123,1,stimuli/objects/ironingboard01.jpg,left,old,284,,,,,,,,
,,,,,,,,10,2021-01-15_15h10.03.937,premce3DEU_ses-02_part-02_label-phase2,2020.1.2,Win32,60,right,2.513,3,0.439,0,153,153,120,1,stimuli/objects/airhockeytable.jpg,right,new,281,,,,,,,,
,,,,,,,,10,2021-01-15_15h10.03.937,premce3DEU_ses-02_part-02_label-phase2,2020.1.2,Win32,60,left,2.798,3,0.151,0,154,154,6,1,stimuli/objects/popcorn.jpg,right,new,167,,,,,,,,
,,,,,,,,10,2021-01-15_15h10.03.937,premce3DEU_ses-02_part-02_label-phase2,2020.1.2,Win32,60,right,1.511,2,0.285,0,155,155,3,1,stimuli/objects/bathtub.jpg,left,old,164,,,,,,,,
,,,,,,,,10,2021-01-15_15h10.03.937,premce3DEU_ses-02_part-02_label-phase2,2020.1.2,Win32,60,right,1.997,3,0.326,0,156,156,48,1,stimuli/objects/rubikcube.jpg,right,new,209,,,,,,,,
,,,,,,,,10,2021-01-15_15h10.03.937,premce3DEU_ses-02_part-02_label-phase2,2020.1.2,Win32,60,right,0.866,2,0.489,0,157,157,28,1,stimuli/objects/car.jpg,left,old,189,,,,,,,,
,,,,,,,,10,2021-01-15_15h10.03.937,premce3DEU_ses-02_part-02_label-phase2,2020.1.2,Win32,60,right,0.899,2,0.508,0,158,158,20,1,stimuli/objects/toysoldier01b.jpg,right,new,181,,,,,,,,
,,,,,,,,10,2021-01-15_15h10.03.937,premce3DEU_ses-02_part-02_label-phase2,2020.1.2,Win32,60,right,0.847,2,0.271,0,159,159,13,1,stimuli/objects/sailboat.jpg,left,old,174,,,,,,,,
,,,,,,,,10,2021-01-15_15h10.03.937,premce3DEU_ses-02_part-02_label-phase2,2020.1.2,Win32,60,,,,,,,,,,,,,,space,2.51,0,1,1,1,1,ImagesforRecog2.csv
