Instr_resp_2.keys,Instr_resp_2.rt,warmup_resp.keys,warmup_resp.corr,warmup_resp.rt,myownaccuracy,respcorrs,myownaccuracyCORR,trials.thisRepN,trials.thisTrialN,trials.thisN,trials.thisIndex,trials.ran,first_butterfly,second_butterfly,Cue,left_flower,top_flower,bottom_flower,right_flower,corr_ans,obj_file,trial_cond,switch_cond,cuedButter,trial_type,participant,date,expName,psychopyVersion,OS,frameRate,Instr_resp.keys,Instr_resp.rt,taskGoresp.keys,taskGoresp.rt,task_resp_3.keys,task_resp_3.corr,task_resp_3.rt,task_loop.thisRepN,task_loop.thisTrialN,task_loop.thisN,task_loop.thisIndex,task_loop.ran,list_loop.thisRepN,list_loop.thisTrialN,list_loop.thisN,list_loop.thisIndex,list_loop.ran,list,key_resp.keys,key_resp.rt
space,36.143,left,0,1.188,0,[],0,0,0,0,12,1,stimuli/white_butterfly.png,stimuli/grey_butterfly.png,1,stimuli/yellow_flower.png,stimuli/red_flower.png,stimuli/blue_flower.png,stimuli/green_flower.png,down,stimuli/objects/toolbox02.jpg,1,99,stimuli/white_butterfly.png,1,10,2021-01-15_14h38.30.826,premce3DEU_ses-02_part-01_label-phase1,2020.1.2,Win32,60,,,,,,,,,,,,,,,,,,,,
,,left,0,0.824,0,[0],0,0,1,1,17,1,stimuli/grey_butterfly.png,stimuli/white_butterfly.png,1,stimuli/red_flower.png,stimuli/green_flower.png,stimuli/yellow_flower.png,stimuli/blue_flower.png,down,stimuli/objects/butterfly4.jpg,0,99,stimuli/grey_butterfly.png,1,10,2021-01-15_14h38.30.826,premce3DEU_ses-02_part-01_label-phase1,2020.1.2,Win32,60,,,,,,,,,,,,,,,,,,,,
,,down,0,1.049,0,[0],0,0,2,2,10,1,stimuli/white_butterfly.png,stimuli/grey_butterfly.png,1,stimuli/green_flower.png,stimuli/yellow_flower.png,stimuli/blue_flower.png,stimuli/red_flower.png,left,stimuli/objects/anchor.jpg,0,99,stimuli/white_butterfly.png,0,10,2021-01-15_14h38.30.826,premce3DEU_ses-02_part-01_label-phase1,2020.1.2,Win32,60,,,,,,,,,,,,,,,,,,,,
,,up,0,1.313,0,[0],0,0,3,3,6,1,stimuli/grey_butterfly.png,stimuli/white_butterfly.png,1,stimuli/green_flower.png,stimuli/yellow_flower.png,stimuli/blue_flower.png,stimuli/red_flower.png,right,stimuli/objects/flipflop01b.jpg,1,99,stimuli/grey_butterfly.png,0,10,2021-01-15_14h38.30.826,premce3DEU_ses-02_part-01_label-phase1,2020.1.2,Win32,60,,,,,,,,,,,,,,,,,,,,
,,down,0,1.501,0,"[0,0]",0,0,4,4,3,1,stimuli/white_butterfly.png,stimuli/grey_butterfly.png,2,stimuli/green_flower.png,stimuli/blue_flower.png,stimuli/red_flower.png,stimuli/yellow_flower.png,left,stimuli/objects/cigar.jpg,0,99,stimuli/grey_butterfly.png,0,10,2021-01-15_14h38.30.826,premce3DEU_ses-02_part-01_label-phase1,2020.1.2,Win32,60,,,,,,,,,,,,,,,,,,,,
,,left,1,1.216,1,"[0,0]",1,0,5,5,8,1,stimuli/white_butterfly.png,stimuli/grey_butterfly.png,2,stimuli/red_flower.png,stimuli/blue_flower.png,stimuli/green_flower.png,stimuli/yellow_flower.png,left,stimuli/objects/shelf.jpg,1,99,stimuli/grey_butterfly.png,0,10,2021-01-15_14h38.30.826,premce3DEU_ses-02_part-01_label-phase1,2020.1.2,Win32,60,,,,,,,,,,,,,,,,,,,,
,,down,1,0.641,1,"[0,0,1]",1,0,6,6,7,1,stimuli/grey_butterfly.png,stimuli/white_butterfly.png,2,stimuli/red_flower.png,stimuli/green_flower.png,stimuli/blue_flower.png,stimuli/yellow_flower.png,down,stimuli/objects/firehydrant.jpg,1,99,stimuli/white_butterfly.png,0,10,2021-01-15_14h38.30.826,premce3DEU_ses-02_part-01_label-phase1,2020.1.2,Win32,60,,,,,,,,,,,,,,,,,,,,
,,right,1,0.69,1,"[0,0,1,1]",1,0,7,7,16,1,stimuli/grey_butterfly.png,stimuli/white_butterfly.png,2,stimuli/red_flower.png,stimuli/yellow_flower.png,stimuli/green_flower.png,stimuli/blue_flower.png,right,stimuli/objects/foosballtable.jpg,1,99,stimuli/white_butterfly.png,1,10,2021-01-15_14h38.30.826,premce3DEU_ses-02_part-01_label-phase1,2020.1.2,Win32,60,,,,,,,,,,,,,,,,,,,,
,,up,1,0.787,1,"[0,0,1,1,1]",1,0,8,8,19,1,stimuli/grey_butterfly.png,stimuli/white_butterfly.png,2,stimuli/yellow_flower.png,stimuli/blue_flower.png,stimuli/red_flower.png,stimuli/green_flower.png,up,stimuli/objects/motorcycle.jpg,1,99,stimuli/white_butterfly.png,1,10,2021-01-15_14h38.30.826,premce3DEU_ses-02_part-01_label-phase1,2020.1.2,Win32,60,,,,,,,,,,,,,,,,,,,,
,,left,0,0.871,0,"[0,0,1,1,1,1]",1,0,9,9,18,1,stimuli/grey_butterfly.png,stimuli/white_butterfly.png,2,stimuli/blue_flower.png,stimuli/yellow_flower.png,stimuli/green_flower.png,stimuli/red_flower.png,up,stimuli/objects/armadillo.jpg,0,99,stimuli/white_butterfly.png,1,10,2021-01-15_14h38.30.826,premce3DEU_ses-02_part-01_label-phase1,2020.1.2,Win32,60,,,,,,,,,,,,,,,,,,,,
,,down,1,0.689,1,"[0,0,1,1,1,1]",1,0,10,10,5,1,stimuli/white_butterfly.png,stimuli/grey_butterfly.png,1,stimuli/green_flower.png,stimuli/red_flower.png,stimuli/blue_flower.png,stimuli/yellow_flower.png,down,stimuli/objects/birdfeeder.jpg,1,99,stimuli/white_butterfly.png,0,10,2021-01-15_14h38.30.826,premce3DEU_ses-02_part-01_label-phase1,2020.1.2,Win32,60,,,,,,,,,,,,,,,,,,,,
,,left,0,0.896,0,"[0,0,1,1,1,1,1]",1,0,11,11,13,1,stimuli/grey_butterfly.png,stimuli/white_butterfly.png,2,stimuli/blue_flower.png,stimuli/red_flower.png,stimuli/yellow_flower.png,stimuli/green_flower.png,up,stimuli/objects/payphone.jpg,0,99,stimuli/white_butterfly.png,1,10,2021-01-15_14h38.30.826,premce3DEU_ses-02_part-01_label-phase1,2020.1.2,Win32,60,,,,,,,,,,,,,,,,,,,,
,,right,0,0.806,0,"[0,0,1,1,1,1,1]",1,0,12,12,11,1,stimuli/white_butterfly.png,stimuli/grey_butterfly.png,2,stimuli/blue_flower.png,stimuli/green_flower.png,stimuli/yellow_flower.png,stimuli/red_flower.png,left,stimuli/objects/bookshelf.jpg,0,99,stimuli/grey_butterfly.png,1,10,2021-01-15_14h38.30.826,premce3DEU_ses-02_part-01_label-phase1,2020.1.2,Win32,60,,,,,,,,,,,,,,,,,,,,
,,right,1,0.606,1,"[0,0,1,1,1,1,1]",1,0,13,13,4,1,stimuli/white_butterfly.png,stimuli/grey_butterfly.png,1,stimuli/green_flower.png,stimuli/red_flower.png,stimuli/yellow_flower.png,stimuli/blue_flower.png,right,stimuli/objects/tire.jpg,1,99,stimuli/white_butterfly.png,0,10,2021-01-15_14h38.30.826,premce3DEU_ses-02_part-01_label-phase1,2020.1.2,Win32,60,,,,,,,,,,,,,,,,,,,,
,,right,0,1.49,0,"[0,0,1,1,1,1,1,1]",0,0,14,14,2,1,stimuli/white_butterfly.png,stimuli/grey_butterfly.png,2,stimuli/blue_flower.png,stimuli/red_flower.png,stimuli/yellow_flower.png,stimuli/green_flower.png,up,stimuli/objects/corn02.jpg,1,99,stimuli/grey_butterfly.png,0,10,2021-01-15_14h38.30.826,premce3DEU_ses-02_part-01_label-phase1,2020.1.2,Win32,60,,,,,,,,,,,,,,,,,,,,
,,left,1,0.932,1,"[0,0,1,1,1,1,1,1,0]",1,0,15,15,15,1,stimuli/grey_butterfly.png,stimuli/white_butterfly.png,1,stimuli/red_flower.png,stimuli/yellow_flower.png,stimuli/blue_flower.png,stimuli/green_flower.png,left,stimuli/objects/wheat.jpg,1,99,stimuli/grey_butterfly.png,1,10,2021-01-15_14h38.30.826,premce3DEU_ses-02_part-01_label-phase1,2020.1.2,Win32,60,,,,,,,,,,,,,,,,,,,,
,,right,1,0.761,1,"[0,0,1,1,1,1,1,1,0,1]",1,0,16,16,0,1,stimuli/grey_butterfly.png,stimuli/white_butterfly.png,2,stimuli/green_flower.png,stimuli/red_flower.png,stimuli/yellow_flower.png,stimuli/blue_flower.png,right,stimuli/objects/tennisracket.jpg,1,99,stimuli/white_butterfly.png,0,10,2021-01-15_14h38.30.826,premce3DEU_ses-02_part-01_label-phase1,2020.1.2,Win32,60,,,,,,,,,,,,,,,,,,,,
,,right,1,0.844,1,"[0,0,1,1,1,1,1,1,0,1,1]",1,0,17,17,20,1,stimuli/white_butterfly.png,stimuli/grey_butterfly.png,2,stimuli/green_flower.png,stimuli/blue_flower.png,stimuli/yellow_flower.png,stimuli/red_flower.png,right,stimuli/objects/toucan.jpg,1,99,stimuli/grey_butterfly.png,1,10,2021-01-15_14h38.30.826,premce3DEU_ses-02_part-01_label-phase1,2020.1.2,Win32,60,,,,,,,,,,,,,,,,,,,,
,,right,0,1.671,0,"[0,0,1,1,1,1,1,1,0,1,1,1]",0,0,18,18,1,1,stimuli/white_butterfly.png,stimuli/grey_butterfly.png,2,stimuli/yellow_flower.png,stimuli/red_flower.png,stimuli/blue_flower.png,stimuli/green_flower.png,up,stimuli/objects/marble.jpg,1,99,stimuli/grey_butterfly.png,0,10,2021-01-15_14h38.30.826,premce3DEU_ses-02_part-01_label-phase1,2020.1.2,Win32,60,,,,,,,,,,,,,,,,,,,,
,,left,1,0.669,1,"[0,0,1,1,1,1,1,1,0,1,1,1,0]",1,0,19,19,9,1,stimuli/white_butterfly.png,stimuli/grey_butterfly.png,1,stimuli/blue_flower.png,stimuli/red_flower.png,stimuli/yellow_flower.png,stimuli/green_flower.png,left,stimuli/objects/skunk.jpg,1,99,stimuli/white_butterfly.png,0,10,2021-01-15_14h38.30.826,premce3DEU_ses-02_part-01_label-phase1,2020.1.2,Win32,60,,,,,,,,,,,,,,,,,,,,
,,up,1,0.566,1,"[0,0,1,1,1,1,1,1,0,1,1,1,0,1]",1,0,20,20,14,1,stimuli/grey_butterfly.png,stimuli/white_butterfly.png,1,stimuli/blue_flower.png,stimuli/red_flower.png,stimuli/yellow_flower.png,stimuli/green_flower.png,up,stimuli/objects/shed02.jpg,1,99,stimuli/grey_butterfly.png,1,10,2021-01-15_14h38.30.826,premce3DEU_ses-02_part-01_label-phase1,2020.1.2,Win32,60,,,,,,,,,,,,,,,,,,,,
,,,,,1,"[0,0,1,1,1,1,1,1,0,1,1,1,0,1,1]",1,,,,,,stimuli/white_butterfly.png,stimuli/grey_butterfly.png,1,stimuli/blue_flower.png,stimuli/red_flower.png,stimuli/green_flower.png,stimuli/yellow_flower.png,left,stimuli/objects/handbrush02.jpg,1,2,stimuli/white_butterfly.png,0,10,2021-01-15_14h38.30.826,premce3DEU_ses-02_part-01_label-phase1,2020.1.2,Win32,60,space,75.936,space,6.984,left,1,0.518,0,0,0,0,1,,,,,,,,
,,,,,0,"[0,0,1,1,1,1,1,1,0,1,1,1,0,1,1,1]",1,,,,,,stimuli/grey_butterfly.png,stimuli/white_butterfly.png,2,stimuli/yellow_flower.png,stimuli/green_flower.png,stimuli/blue_flower.png,stimuli/red_flower.png,up,stimuli/objects/fishskeleton.jpg,0,2,stimuli/white_butterfly.png,0,10,2021-01-15_14h38.30.826,premce3DEU_ses-02_part-01_label-phase1,2020.1.2,Win32,60,,,,,down,0,0.626,0,1,1,1,1,,,,,,,,
,,,,,0,"[0,0,1,1,1,1,1,1,0,1,1,1,0,1,1,1]",1,,,,,,stimuli/white_butterfly.png,stimuli/grey_butterfly.png,1,stimuli/green_flower.png,stimuli/blue_flower.png,stimuli/red_flower.png,stimuli/yellow_flower.png,down,stimuli/objects/brownsugar.jpg,0,2,stimuli/white_butterfly.png,0,10,2021-01-15_14h38.30.826,premce3DEU_ses-02_part-01_label-phase1,2020.1.2,Win32,60,,,,,up,0,0.544,0,2,2,2,1,,,,,,,,
,,,,,0,"[0,0,1,1,1,1,1,1,0,1,1,1,0,1,1,1]",1,,,,,,stimuli/grey_butterfly.png,stimuli/white_butterfly.png,1,stimuli/yellow_flower.png,stimuli/green_flower.png,stimuli/red_flower.png,stimuli/blue_flower.png,left,stimuli/objects/gong.jpg,0,2,stimuli/grey_butterfly.png,0,10,2021-01-15_14h38.30.826,premce3DEU_ses-02_part-01_label-phase1,2020.1.2,Win32,60,,,,,down,0,0.581,0,3,3,3,1,,,,,,,,
,,,,,1,"[0,0,1,1,1,1,1,1,0,1,1,1,0,1,1,1]",1,,,,,,stimuli/grey_butterfly.png,stimuli/white_butterfly.png,2,stimuli/blue_flower.png,stimuli/red_flower.png,stimuli/yellow_flower.png,stimuli/green_flower.png,left,stimuli/objects/treadmill.jpg,1,2,stimuli/white_butterfly.png,0,10,2021-01-15_14h38.30.826,premce3DEU_ses-02_part-01_label-phase1,2020.1.2,Win32,60,,,,,left,1,0.654,0,4,4,4,1,,,,,,,,
,,,,,1,"[0,0,1,1,1,1,1,1,0,1,1,1,0,1,1,1,1]",1,,,,,,stimuli/white_butterfly.png,stimuli/grey_butterfly.png,2,stimuli/yellow_flower.png,stimuli/green_flower.png,stimuli/red_flower.png,stimuli/blue_flower.png,down,stimuli/objects/shower.jpg,1,2,stimuli/grey_butterfly.png,0,10,2021-01-15_14h38.30.826,premce3DEU_ses-02_part-01_label-phase1,2020.1.2,Win32,60,,,,,down,1,1.206,0,5,5,5,1,,,,,,,,
,,,,,1,"[0,0,1,1,1,1,1,1,0,1,1,1,0,1,1,1,1,1]",1,,,,,,stimuli/white_butterfly.png,stimuli/grey_butterfly.png,1,stimuli/green_flower.png,stimuli/yellow_flower.png,stimuli/red_flower.png,stimuli/blue_flower.png,right,stimuli/objects/skateboard.jpg,1,2,stimuli/white_butterfly.png,0,10,2021-01-15_14h38.30.826,premce3DEU_ses-02_part-01_label-phase1,2020.1.2,Win32,60,,,,,right,1,0.683,0,6,6,6,1,,,,,,,,
,,,,,1,"[0,0,1,1,1,1,1,1,0,1,1,1,0,1,1,1,1,1,1]",1,,,,,,stimuli/white_butterfly.png,stimuli/grey_butterfly.png,1,stimuli/blue_flower.png,stimuli/yellow_flower.png,stimuli/green_flower.png,stimuli/red_flower.png,left,stimuli/objects/barrel01.jpg,1,2,stimuli/white_butterfly.png,0,10,2021-01-15_14h38.30.826,premce3DEU_ses-02_part-01_label-phase1,2020.1.2,Win32,60,,,,,left,1,0.702,0,7,7,7,1,,,,,,,,
,,,,,1,"[0,0,1,1,1,1,1,1,0,1,1,1,0,1,1,1,1,1,1,1]",1,,,,,,stimuli/white_butterfly.png,stimuli/grey_butterfly.png,1,stimuli/red_flower.png,stimuli/yellow_flower.png,stimuli/green_flower.png,stimuli/blue_flower.png,right,stimuli/objects/xylophone.jpg,1,2,stimuli/white_butterfly.png,0,10,2021-01-15_14h38.30.826,premce3DEU_ses-02_part-01_label-phase1,2020.1.2,Win32,60,,,,,right,1,0.883,0,8,8,8,1,,,,,,,,
,,,,,1,"[0,0,1,1,1,1,1,1,0,1,1,1,0,1,1,1,1,1,1,1,1]",1,,,,,,stimuli/grey_butterfly.png,stimuli/white_butterfly.png,1,stimuli/green_flower.png,stimuli/red_flower.png,stimuli/blue_flower.png,stimuli/yellow_flower.png,up,stimuli/objects/forklift.jpg,1,2,stimuli/grey_butterfly.png,0,10,2021-01-15_14h38.30.826,premce3DEU_ses-02_part-01_label-phase1,2020.1.2,Win32,60,,,,,up,1,0.603,0,9,9,9,1,,,,,,,,
,,,,,1,"[0,0,1,1,1,1,1,1,0,1,1,1,0,1,1,1,1,1,1,1,1,1]",1,,,,,,stimuli/white_butterfly.png,stimuli/grey_butterfly.png,2,stimuli/green_flower.png,stimuli/blue_flower.png,stimuli/yellow_flower.png,stimuli/red_flower.png,right,stimuli/objects/scalpel.jpg,1,2,stimuli/grey_butterfly.png,0,10,2021-01-15_14h38.30.826,premce3DEU_ses-02_part-01_label-phase1,2020.1.2,Win32,60,,,,,right,1,1.07,0,10,10,10,1,,,,,,,,
,,,,,1,"[0,0,1,1,1,1,1,1,0,1,1,1,0,1,1,1,1,1,1,1,1,1,1]",1,,,,,,stimuli/grey_butterfly.png,stimuli/white_butterfly.png,2,stimuli/yellow_flower.png,stimuli/blue_flower.png,stimuli/red_flower.png,stimuli/green_flower.png,up,stimuli/objects/sailboat.jpg,1,2,stimuli/white_butterfly.png,0,10,2021-01-15_14h38.30.826,premce3DEU_ses-02_part-01_label-phase1,2020.1.2,Win32,60,,,,,up,1,0.656,0,11,11,11,1,,,,,,,,
,,,,,1,"[0,0,1,1,1,1,1,1,0,1,1,1,0,1,1,1,1,1,1,1,1,1,1,1]",1,,,,,,stimuli/grey_butterfly.png,stimuli/white_butterfly.png,2,stimuli/green_flower.png,stimuli/red_flower.png,stimuli/blue_flower.png,stimuli/yellow_flower.png,down,stimuli/objects/snowman.jpg,1,2,stimuli/white_butterfly.png,0,10,2021-01-15_14h38.30.826,premce3DEU_ses-02_part-01_label-phase1,2020.1.2,Win32,60,,,,,down,1,0.666,0,12,12,12,1,,,,,,,,
,,,,,1,"[0,0,1,1,1,1,1,1,0,1,1,1,0,1,1,1,1,1,1,1,1,1,1,1,1]",1,,,,,,stimuli/grey_butterfly.png,stimuli/white_butterfly.png,1,stimuli/green_flower.png,stimuli/yellow_flower.png,stimuli/red_flower.png,stimuli/blue_flower.png,down,stimuli/objects/stool01.jpg,1,2,stimuli/grey_butterfly.png,0,10,2021-01-15_14h38.30.826,premce3DEU_ses-02_part-01_label-phase1,2020.1.2,Win32,60,,,,,down,1,0.789,0,13,13,13,1,,,,,,,,
,,,,,1,"[0,0,1,1,1,1,1,1,0,1,1,1,0,1,1,1,1,1,1,1,1,1,1,1,1,1]",1,,,,,,stimuli/grey_butterfly.png,stimuli/white_butterfly.png,1,stimuli/red_flower.png,stimuli/green_flower.png,stimuli/blue_flower.png,stimuli/yellow_flower.png,left,stimuli/objects/butterfly1.jpg,1,2,stimuli/grey_butterfly.png,0,10,2021-01-15_14h38.30.826,premce3DEU_ses-02_part-01_label-phase1,2020.1.2,Win32,60,,,,,left,1,1.059,0,14,14,14,1,,,,,,,,
,,,,,0,"[0,0,1,1,1,1,1,1,0,1,1,1,0,1,1,1,1,1,1,1,1,1,1,1,1,1,1]",1,,,,,,stimuli/white_butterfly.png,stimuli/grey_butterfly.png,2,stimuli/green_flower.png,stimuli/blue_flower.png,stimuli/red_flower.png,stimuli/yellow_flower.png,left,stimuli/objects/wheelchair.jpg,0,2,stimuli/grey_butterfly.png,0,10,2021-01-15_14h38.30.826,premce3DEU_ses-02_part-01_label-phase1,2020.1.2,Win32,60,,,,,down,0,1.101,0,15,15,15,1,,,,,,,,
,,,,,1,"[0,0,1,1,1,1,1,1,0,1,1,1,0,1,1,1,1,1,1,1,1,1,1,1,1,1,1]",1,,,,,,stimuli/grey_butterfly.png,stimuli/white_butterfly.png,2,stimuli/blue_flower.png,stimuli/green_flower.png,stimuli/red_flower.png,stimuli/yellow_flower.png,left,stimuli/objects/desktopcomputer.jpg,1,2,stimuli/white_butterfly.png,0,10,2021-01-15_14h38.30.826,premce3DEU_ses-02_part-01_label-phase1,2020.1.2,Win32,60,,,,,left,1,1.135,0,16,16,16,1,,,,,,,,
,,,,,1,"[0,0,1,1,1,1,1,1,0,1,1,1,0,1,1,1,1,1,1,1,1,1,1,1,1,1,1,1]",1,,,,,,stimuli/grey_butterfly.png,stimuli/white_butterfly.png,2,stimuli/yellow_flower.png,stimuli/red_flower.png,stimuli/green_flower.png,stimuli/blue_flower.png,right,stimuli/objects/triangle.jpg,1,2,stimuli/white_butterfly.png,0,10,2021-01-15_14h38.30.826,premce3DEU_ses-02_part-01_label-phase1,2020.1.2,Win32,60,,,,,right,1,0.988,0,17,17,17,1,,,,,,,,
,,,,,1,"[0,0,1,1,1,1,1,1,0,1,1,1,0,1,1,1,1,1,1,1,1,1,1,1,1,1,1,1,1]",1,,,,,,stimuli/white_butterfly.png,stimuli/grey_butterfly.png,1,stimuli/red_flower.png,stimuli/blue_flower.png,stimuli/yellow_flower.png,stimuli/green_flower.png,up,stimuli/objects/dartboard.jpg,1,2,stimuli/white_butterfly.png,0,10,2021-01-15_14h38.30.826,premce3DEU_ses-02_part-01_label-phase1,2020.1.2,Win32,60,,,,,up,1,0.589,0,18,18,18,1,,,,,,,,
,,,,,1,"[0,0,1,1,1,1,1,1,0,1,1,1,0,1,1,1,1,1,1,1,1,1,1,1,1,1,1,1,1,1]",1,,,,,,stimuli/grey_butterfly.png,stimuli/white_butterfly.png,1,stimuli/red_flower.png,stimuli/blue_flower.png,stimuli/green_flower.png,stimuli/yellow_flower.png,left,stimuli/objects/electricguitar01.jpg,1,2,stimuli/grey_butterfly.png,0,10,2021-01-15_14h38.30.826,premce3DEU_ses-02_part-01_label-phase1,2020.1.2,Win32,60,,,,,left,1,0.871,0,19,19,19,1,,,,,,,,
,,,,,0,"[0,0,1,1,1,1,1,1,0,1,1,1,0,1,1,1,1,1,1,1,1,1,1,1,1,1,1,1,1,1,1]",1,,,,,,stimuli/white_butterfly.png,stimuli/grey_butterfly.png,2,stimuli/blue_flower.png,stimuli/green_flower.png,stimuli/yellow_flower.png,stimuli/red_flower.png,left,stimuli/objects/pumpkin.jpg,0,2,stimuli/grey_butterfly.png,0,10,2021-01-15_14h38.30.826,premce3DEU_ses-02_part-01_label-phase1,2020.1.2,Win32,60,,,,,right,0,1.111,0,20,20,20,1,,,,,,,,
,,,,,1,"[0,0,1,1,1,1,1,1,0,1,1,1,0,1,1,1,1,1,1,1,1,1,1,1,1,1,1,1,1,1,1]",1,,,,,,stimuli/grey_butterfly.png,stimuli/white_butterfly.png,1,stimuli/green_flower.png,stimuli/blue_flower.png,stimuli/red_flower.png,stimuli/yellow_flower.png,down,stimuli/objects/doubledoors.jpg,1,2,stimuli/grey_butterfly.png,1,10,2021-01-15_14h38.30.826,premce3DEU_ses-02_part-01_label-phase1,2020.1.2,Win32,60,,,,,down,1,0.692,0,21,21,21,1,,,,,,,,
,,,,,1,"[0,0,1,1,1,1,1,1,0,1,1,1,0,1,1,1,1,1,1,1,1,1,1,1,1,1,1,1,1,1,1,1]",1,,,,,,stimuli/white_butterfly.png,stimuli/grey_butterfly.png,2,stimuli/yellow_flower.png,stimuli/red_flower.png,stimuli/green_flower.png,stimuli/blue_flower.png,up,stimuli/objects/waterfountain02.jpg,1,2,stimuli/grey_butterfly.png,1,10,2021-01-15_14h38.30.826,premce3DEU_ses-02_part-01_label-phase1,2020.1.2,Win32,60,,,,,up,1,1.213,0,22,22,22,1,,,,,,,,
,,,,,1,"[0,0,1,1,1,1,1,1,0,1,1,1,0,1,1,1,1,1,1,1,1,1,1,1,1,1,1,1,1,1,1,1,1]",1,,,,,,stimuli/grey_butterfly.png,stimuli/white_butterfly.png,1,stimuli/red_flower.png,stimuli/yellow_flower.png,stimuli/blue_flower.png,stimuli/green_flower.png,left,stimuli/objects/skiboot01a.jpg,1,2,stimuli/grey_butterfly.png,1,10,2021-01-15_14h38.30.826,premce3DEU_ses-02_part-01_label-phase1,2020.1.2,Win32,60,,,,,left,1,0.819,0,23,23,23,1,,,,,,,,
,,,,,0,"[0,0,1,1,1,1,1,1,0,1,1,1,0,1,1,1,1,1,1,1,1,1,1,1,1,1,1,1,1,1,1,1,1,1]",1,,,,,,stimuli/grey_butterfly.png,stimuli/white_butterfly.png,2,stimuli/red_flower.png,stimuli/green_flower.png,stimuli/yellow_flower.png,stimuli/blue_flower.png,down,stimuli/objects/coffeemaker.jpg,0,2,stimuli/white_butterfly.png,1,10,2021-01-15_14h38.30.826,premce3DEU_ses-02_part-01_label-phase1,2020.1.2,Win32,60,,,,,right,0,0.716,0,24,24,24,1,,,,,,,,
,,,,,1,"[0,0,1,1,1,1,1,1,0,1,1,1,0,1,1,1,1,1,1,1,1,1,1,1,1,1,1,1,1,1,1,1,1,1]",1,,,,,,stimuli/white_butterfly.png,stimuli/grey_butterfly.png,2,stimuli/red_flower.png,stimuli/blue_flower.png,stimuli/yellow_flower.png,stimuli/green_flower.png,left,stimuli/objects/rockingchair.jpg,1,2,stimuli/grey_butterfly.png,1,10,2021-01-15_14h38.30.826,premce3DEU_ses-02_part-01_label-phase1,2020.1.2,Win32,60,,,,,left,1,0.832,0,25,25,25,1,,,,,,,,
,,,,,1,"[0,0,1,1,1,1,1,1,0,1,1,1,0,1,1,1,1,1,1,1,1,1,1,1,1,1,1,1,1,1,1,1,1,1,1]",1,,,,,,stimuli/grey_butterfly.png,stimuli/white_butterfly.png,1,stimuli/yellow_flower.png,stimuli/blue_flower.png,stimuli/green_flower.png,stimuli/red_flower.png,right,stimuli/objects/trophy01.jpg,1,2,stimuli/grey_butterfly.png,1,10,2021-01-15_14h38.30.826,premce3DEU_ses-02_part-01_label-phase1,2020.1.2,Win32,60,,,,,right,1,0.908,0,26,26,26,1,,,,,,,,
,,,,,1,"[0,0,1,1,1,1,1,1,0,1,1,1,0,1,1,1,1,1,1,1,1,1,1,1,1,1,1,1,1,1,1,1,1,1,1,1]",1,,,,,,stimuli/white_butterfly.png,stimuli/grey_butterfly.png,2,stimuli/red_flower.png,stimuli/yellow_flower.png,stimuli/green_flower.png,stimuli/blue_flower.png,left,stimuli/objects/fridge.jpg,1,2,stimuli/grey_butterfly.png,1,10,2021-01-15_14h38.30.826,premce3DEU_ses-02_part-01_label-phase1,2020.1.2,Win32,60,,,,,left,1,0.863,0,27,27,27,1,,,,,,,,
,,,,,1,"[0,0,1,1,1,1,1,1,0,1,1,1,0,1,1,1,1,1,1,1,1,1,1,1,1,1,1,1,1,1,1,1,1,1,1,1,1]",1,,,,,,stimuli/grey_butterfly.png,stimuli/white_butterfly.png,2,stimuli/blue_flower.png,stimuli/red_flower.png,stimuli/green_flower.png,stimuli/yellow_flower.png,left,stimuli/objects/filingcabinet.jpg,1,2,stimuli/white_butterfly.png,1,10,2021-01-15_14h38.30.826,premce3DEU_ses-02_part-01_label-phase1,2020.1.2,Win32,60,,,,,left,1,0.775,0,28,28,28,1,,,,,,,,
,,,,,1,"[0,0,1,1,1,1,1,1,0,1,1,1,0,1,1,1,1,1,1,1,1,1,1,1,1,1,1,1,1,1,1,1,1,1,1,1,1,1]",1,,,,,,stimuli/grey_butterfly.png,stimuli/white_butterfly.png,1,stimuli/green_flower.png,stimuli/red_flower.png,stimuli/yellow_flower.png,stimuli/blue_flower.png,up,stimuli/objects/crown.jpg,1,2,stimuli/grey_butterfly.png,1,10,2021-01-15_14h38.30.826,premce3DEU_ses-02_part-01_label-phase1,2020.1.2,Win32,60,,,,,up,1,0.724,0,29,29,29,1,,,,,,,,
,,,,,1,"[0,0,1,1,1,1,1,1,0,1,1,1,0,1,1,1,1,1,1,1,1,1,1,1,1,1,1,1,1,1,1,1,1,1,1,1,1,1,1]",1,,,,,,stimuli/white_butterfly.png,stimuli/grey_butterfly.png,1,stimuli/green_flower.png,stimuli/red_flower.png,stimuli/yellow_flower.png,stimuli/blue_flower.png,right,stimuli/objects/file.jpg,1,2,stimuli/white_butterfly.png,1,10,2021-01-15_14h38.30.826,premce3DEU_ses-02_part-01_label-phase1,2020.1.2,Win32,60,,,,,right,1,0.899,0,30,30,30,1,,,,,,,,
,,,,,1,"[0,0,1,1,1,1,1,1,0,1,1,1,0,1,1,1,1,1,1,1,1,1,1,1,1,1,1,1,1,1,1,1,1,1,1,1,1,1,1,1]",1,,,,,,stimuli/white_butterfly.png,stimuli/grey_butterfly.png,2,stimuli/yellow_flower.png,stimuli/red_flower.png,stimuli/blue_flower.png,stimuli/green_flower.png,up,stimuli/objects/blender.jpg,1,2,stimuli/grey_butterfly.png,1,10,2021-01-15_14h38.30.826,premce3DEU_ses-02_part-01_label-phase1,2020.1.2,Win32,60,,,,,up,1,1.108,0,31,31,31,1,,,,,,,,
,,,,,1,"[0,0,1,1,1,1,1,1,0,1,1,1,0,1,1,1,1,1,1,1,1,1,1,1,1,1,1,1,1,1,1,1,1,1,1,1,1,1,1,1,1]",1,,,,,,stimuli/grey_butterfly.png,stimuli/white_butterfly.png,2,stimuli/blue_flower.png,stimuli/yellow_flower.png,stimuli/green_flower.png,stimuli/red_flower.png,left,stimuli/objects/sandcastle.jpg,1,2,stimuli/white_butterfly.png,1,10,2021-01-15_14h38.30.826,premce3DEU_ses-02_part-01_label-phase1,2020.1.2,Win32,60,,,,,left,1,0.601,0,32,32,32,1,,,,,,,,
,,,,,1,"[0,0,1,1,1,1,1,1,0,1,1,1,0,1,1,1,1,1,1,1,1,1,1,1,1,1,1,1,1,1,1,1,1,1,1,1,1,1,1,1,1,1]",1,,,,,,stimuli/grey_butterfly.png,stimuli/white_butterfly.png,1,stimuli/red_flower.png,stimuli/blue_flower.png,stimuli/yellow_flower.png,stimuli/green_flower.png,left,stimuli/objects/crab01.jpg,1,2,stimuli/grey_butterfly.png,1,10,2021-01-15_14h38.30.826,premce3DEU_ses-02_part-01_label-phase1,2020.1.2,Win32,60,,,,,left,1,0.648,0,33,33,33,1,,,,,,,,
,,,,,1,"[0,0,1,1,1,1,1,1,0,1,1,1,0,1,1,1,1,1,1,1,1,1,1,1,1,1,1,1,1,1,1,1,1,1,1,1,1,1,1,1,1,1,1]",1,,,,,,stimuli/grey_butterfly.png,stimuli/white_butterfly.png,2,stimuli/green_flower.png,stimuli/red_flower.png,stimuli/yellow_flower.png,stimuli/blue_flower.png,right,stimuli/objects/butterfly1.jpg,1,2,stimuli/white_butterfly.png,1,10,2021-01-15_14h38.30.826,premce3DEU_ses-02_part-01_label-phase1,2020.1.2,Win32,60,,,,,right,1,0.771,0,34,34,34,1,,,,,,,,
,,,,,1,"[0,0,1,1,1,1,1,1,0,1,1,1,0,1,1,1,1,1,1,1,1,1,1,1,1,1,1,1,1,1,1,1,1,1,1,1,1,1,1,1,1,1,1,1]",1,,,,,,stimuli/grey_butterfly.png,stimuli/white_butterfly.png,1,stimuli/green_flower.png,stimuli/yellow_flower.png,stimuli/blue_flower.png,stimuli/red_flower.png,right,stimuli/objects/doghouse.jpg,1,2,stimuli/grey_butterfly.png,1,10,2021-01-15_14h38.30.826,premce3DEU_ses-02_part-01_label-phase1,2020.1.2,Win32,60,,,,,right,1,0.765,0,35,35,35,1,,,,,,,,
,,,,,1,"[0,0,1,1,1,1,1,1,0,1,1,1,0,1,1,1,1,1,1,1,1,1,1,1,1,1,1,1,1,1,1,1,1,1,1,1,1,1,1,1,1,1,1,1,1]",1,,,,,,stimuli/white_butterfly.png,stimuli/grey_butterfly.png,1,stimuli/blue_flower.png,stimuli/red_flower.png,stimuli/yellow_flower.png,stimuli/green_flower.png,left,stimuli/objects/chime.jpg,1,2,stimuli/white_butterfly.png,1,10,2021-01-15_14h38.30.826,premce3DEU_ses-02_part-01_label-phase1,2020.1.2,Win32,60,,,,,left,1,0.619,0,36,36,36,1,,,,,,,,
,,,,,1,"[0,0,1,1,1,1,1,1,0,1,1,1,0,1,1,1,1,1,1,1,1,1,1,1,1,1,1,1,1,1,1,1,1,1,1,1,1,1,1,1,1,1,1,1,1,1]",1,,,,,,stimuli/grey_butterfly.png,stimuli/white_butterfly.png,2,stimuli/green_flower.png,stimuli/yellow_flower.png,stimuli/blue_flower.png,stimuli/red_flower.png,down,stimuli/objects/contactlens.jpg,1,2,stimuli/white_butterfly.png,1,10,2021-01-15_14h38.30.826,premce3DEU_ses-02_part-01_label-phase1,2020.1.2,Win32,60,,,,,down,1,0.774,0,37,37,37,1,,,,,,,,
,,,,,1,"[0,0,1,1,1,1,1,1,0,1,1,1,0,1,1,1,1,1,1,1,1,1,1,1,1,1,1,1,1,1,1,1,1,1,1,1,1,1,1,1,1,1,1,1,1,1,1]",1,,,,,,stimuli/grey_butterfly.png,stimuli/white_butterfly.png,2,stimuli/green_flower.png,stimuli/yellow_flower.png,stimuli/red_flower.png,stimuli/blue_flower.png,right,stimuli/objects/snowglobe.jpg,1,2,stimuli/white_butterfly.png,1,10,2021-01-15_14h38.30.826,premce3DEU_ses-02_part-01_label-phase1,2020.1.2,Win32,60,,,,,right,1,0.985,0,38,38,38,1,,,,,,,,
,,,,,1,"[0,0,1,1,1,1,1,1,0,1,1,1,0,1,1,1,1,1,1,1,1,1,1,1,1,1,1,1,1,1,1,1,1,1,1,1,1,1,1,1,1,1,1,1,1,1,1,1]",1,,,,,,stimuli/white_butterfly.png,stimuli/grey_butterfly.png,2,stimuli/green_flower.png,stimuli/red_flower.png,stimuli/blue_flower.png,stimuli/yellow_flower.png,up,stimuli/objects/beerbottle.jpg,1,2,stimuli/grey_butterfly.png,1,10,2021-01-15_14h38.30.826,premce3DEU_ses-02_part-01_label-phase1,2020.1.2,Win32,60,,,,,up,1,0.643,0,39,39,39,1,,,,,,,,
,,,,,1,"[0,0,1,1,1,1,1,1,0,1,1,1,0,1,1,1,1,1,1,1,1,1,1,1,1,1,1,1,1,1,1,1,1,1,1,1,1,1,1,1,1,1,1,1,1,1,1,1,1]",1,,,,,,stimuli/grey_butterfly.png,stimuli/white_butterfly.png,1,stimuli/blue_flower.png,stimuli/yellow_flower.png,stimuli/green_flower.png,stimuli/red_flower.png,right,stimuli/objects/salmon.jpg,1,2,stimuli/grey_butterfly.png,1,10,2021-01-15_14h38.30.826,premce3DEU_ses-02_part-01_label-phase1,2020.1.2,Win32,60,,,,,right,1,0.723,0,40,40,40,1,,,,,,,,
,,,,,1,"[0,0,1,1,1,1,1,1,0,1,1,1,0,1,1,1,1,1,1,1,1,1,1,1,1,1,1,1,1,1,1,1,1,1,1,1,1,1,1,1,1,1,1,1,1,1,1,1,1,1]",1,,,,,,stimuli/grey_butterfly.png,stimuli/white_butterfly.png,2,stimuli/green_flower.png,stimuli/blue_flower.png,stimuli/red_flower.png,stimuli/yellow_flower.png,up,stimuli/objects/microwave.jpg,1,2,stimuli/white_butterfly.png,1,10,2021-01-15_14h38.30.826,premce3DEU_ses-02_part-01_label-phase1,2020.1.2,Win32,60,,,,,up,1,0.696,0,41,41,41,1,,,,,,,,
,,,,,,,,,,,,,,,,,,,,,,,,,,10,2021-01-15_14h38.30.826,premce3DEU_ses-02_part-01_label-phase1,2020.1.2,Win32,60,,,,,,,,,,,,,0,0,0,0,1,condition_files/tasklistAplus3.csv,,
,,,,,0,"[0,0,1,1,1,1,1,1,0,1,1,1,0,1,1,1,1,1,1,1,1,1,1,1,1,1,1,1,1,1,1,1,1,1,1,1,1,1,1,1,1,1,1,1,1,1,1,1,1,1,1]",0,,,,,,stimuli/grey_butterfly.png,stimuli/white_butterfly.png,2,stimuli/yellow_flower.png,stimuli/blue_flower.png,stimuli/red_flower.png,stimuli/green_flower.png,right,stimuli/objects/whiteout.jpg,1,3,stimuli/white_butterfly.png,0,10,2021-01-15_14h38.30.826,premce3DEU_ses-02_part-01_label-phase1,2020.1.2,Win32,60,,,,,up,0,0.55,0,0,0,0,1,,,,,,,,
,,,,,0,"[0,0,1,1,1,1,1,1,0,1,1,1,0,1,1,1,1,1,1,1,1,1,1,1,1,1,1,1,1,1,1,1,1,1,1,1,1,1,1,1,1,1,1,1,1,1,1,1,1,1,1,0]",0,,,,,,stimuli/white_butterfly.png,stimuli/grey_butterfly.png,1,stimuli/red_flower.png,stimuli/blue_flower.png,stimuli/yellow_flower.png,stimuli/green_flower.png,right,stimuli/objects/dromedary.jpg,1,3,stimuli/white_butterfly.png,0,10,2021-01-15_14h38.30.826,premce3DEU_ses-02_part-01_label-phase1,2020.1.2,Win32,60,,,,,up,0,0.602,0,1,1,1,1,,,,,,,,
,,,,,0,"[0,0,1,1,1,1,1,1,0,1,1,1,0,1,1,1,1,1,1,1,1,1,1,1,1,1,1,1,1,1,1,1,1,1,1,1,1,1,1,1,1,1,1,1,1,1,1,1,1,1,1,0,0]",0,,,,,,stimuli/white_butterfly.png,stimuli/grey_butterfly.png,2,stimuli/green_flower.png,stimuli/yellow_flower.png,stimuli/blue_flower.png,stimuli/red_flower.png,up,stimuli/objects/cruiseship.jpg,1,3,stimuli/grey_butterfly.png,0,10,2021-01-15_14h38.30.826,premce3DEU_ses-02_part-01_label-phase1,2020.1.2,Win32,60,,,,,right,0,0.672,0,2,2,2,1,,,,,,,,
,,,,,0,"[0,0,1,1,1,1,1,1,0,1,1,1,0,1,1,1,1,1,1,1,1,1,1,1,1,1,1,1,1,1,1,1,1,1,1,1,1,1,1,1,1,1,1,1,1,1,1,1,1,1,1,0,0,0]",0,,,,,,stimuli/white_butterfly.png,stimuli/grey_butterfly.png,1,stimuli/blue_flower.png,stimuli/red_flower.png,stimuli/yellow_flower.png,stimuli/green_flower.png,right,stimuli/objects/rollerblade.jpg,1,3,stimuli/white_butterfly.png,0,10,2021-01-15_14h38.30.826,premce3DEU_ses-02_part-01_label-phase1,2020.1.2,Win32,60,,,,,down,0,1.277,0,3,3,3,1,,,,,,,,
,,,,,0,"[0,0,1,1,1,1,1,1,0,1,1,1,0,1,1,1,1,1,1,1,1,1,1,1,1,1,1,1,1,1,1,1,1,1,1,1,1,1,1,1,1,1,1,1,1,1,1,1,1,1,1,0,0,0,0]",0,,,,,,stimuli/white_butterfly.png,stimuli/grey_butterfly.png,1,stimuli/yellow_flower.png,stimuli/green_flower.png,stimuli/blue_flower.png,stimuli/red_flower.png,left,stimuli/objects/moon.jpg,0,3,stimuli/white_butterfly.png,0,10,2021-01-15_14h38.30.826,premce3DEU_ses-02_part-01_label-phase1,2020.1.2,Win32,60,,,,,up,0,0.784,0,4,4,4,1,,,,,,,,
,,,,,0,"[0,0,1,1,1,1,1,1,0,1,1,1,0,1,1,1,1,1,1,1,1,1,1,1,1,1,1,1,1,1,1,1,1,1,1,1,1,1,1,1,1,1,1,1,1,1,1,1,1,1,1,0,0,0,0]",0,,,,,,stimuli/white_butterfly.png,stimuli/grey_butterfly.png,2,stimuli/yellow_flower.png,stimuli/red_flower.png,stimuli/blue_flower.png,stimuli/green_flower.png,left,stimuli/objects/windshieldwiper02.jpg,1,3,stimuli/grey_butterfly.png,0,10,2021-01-15_14h38.30.826,premce3DEU_ses-02_part-01_label-phase1,2020.1.2,Win32,60,,,,,up,0,1.193,0,5,5,5,1,,,,,,,,
,,,,,1,"[0,0,1,1,1,1,1,1,0,1,1,1,0,1,1,1,1,1,1,1,1,1,1,1,1,1,1,1,1,1,1,1,1,1,1,1,1,1,1,1,1,1,1,1,1,1,1,1,1,1,1,0,0,0,0,0]",1,,,,,,stimuli/grey_butterfly.png,stimuli/white_butterfly.png,2,stimuli/blue_flower.png,stimuli/yellow_flower.png,stimuli/green_flower.png,stimuli/red_flower.png,down,stimuli/objects/candycane01a.jpg,1,3,stimuli/white_butterfly.png,0,10,2021-01-15_14h38.30.826,premce3DEU_ses-02_part-01_label-phase1,2020.1.2,Win32,60,,,,,down,1,0.602,0,6,6,6,1,,,,,,,,
,,,,,1,"[0,0,1,1,1,1,1,1,0,1,1,1,0,1,1,1,1,1,1,1,1,1,1,1,1,1,1,1,1,1,1,1,1,1,1,1,1,1,1,1,1,1,1,1,1,1,1,1,1,1,1,0,0,0,0,0,1]",1,,,,,,stimuli/grey_butterfly.png,stimuli/white_butterfly.png,2,stimuli/blue_flower.png,stimuli/green_flower.png,stimuli/yellow_flower.png,stimuli/red_flower.png,up,stimuli/objects/canoepaddle02.jpg,1,3,stimuli/white_butterfly.png,0,10,2021-01-15_14h38.30.826,premce3DEU_ses-02_part-01_label-phase1,2020.1.2,Win32,60,,,,,up,1,0.537,0,7,7,7,1,,,,,,,,
,,,,,1,"[0,0,1,1,1,1,1,1,0,1,1,1,0,1,1,1,1,1,1,1,1,1,1,1,1,1,1,1,1,1,1,1,1,1,1,1,1,1,1,1,1,1,1,1,1,1,1,1,1,1,1,0,0,0,0,0,1,1]",1,,,,,,stimuli/white_butterfly.png,stimuli/grey_butterfly.png,2,stimuli/blue_flower.png,stimuli/green_flower.png,stimuli/red_flower.png,stimuli/yellow_flower.png,right,stimuli/objects/hotdog.jpg,1,3,stimuli/grey_butterfly.png,0,10,2021-01-15_14h38.30.826,premce3DEU_ses-02_part-01_label-phase1,2020.1.2,Win32,60,,,,,right,1,0.851,0,8,8,8,1,,,,,,,,
,,,,,1,"[0,0,1,1,1,1,1,1,0,1,1,1,0,1,1,1,1,1,1,1,1,1,1,1,1,1,1,1,1,1,1,1,1,1,1,1,1,1,1,1,1,1,1,1,1,1,1,1,1,1,1,0,0,0,0,0,1,1,1]",1,,,,,,stimuli/grey_butterfly.png,stimuli/white_butterfly.png,2,stimuli/green_flower.png,stimuli/blue_flower.png,stimuli/yellow_flower.png,stimuli/red_flower.png,left,stimuli/objects/cactus.jpg,1,3,stimuli/white_butterfly.png,0,10,2021-01-15_14h38.30.826,premce3DEU_ses-02_part-01_label-phase1,2020.1.2,Win32,60,,,,,left,1,0.765,0,9,9,9,1,,,,,,,,
,,,,,1,"[0,0,1,1,1,1,1,1,0,1,1,1,0,1,1,1,1,1,1,1,1,1,1,1,1,1,1,1,1,1,1,1,1,1,1,1,1,1,1,1,1,1,1,1,1,1,1,1,1,1,1,0,0,0,0,0,1,1,1,1]",1,,,,,,stimuli/white_butterfly.png,stimuli/grey_butterfly.png,2,stimuli/red_flower.png,stimuli/blue_flower.png,stimuli/yellow_flower.png,stimuli/green_flower.png,down,stimuli/objects/bookshelf.jpg,1,3,stimuli/grey_butterfly.png,0,10,2021-01-15_14h38.30.826,premce3DEU_ses-02_part-01_label-phase1,2020.1.2,Win32,60,,,,,down,1,1.011,0,10,10,10,1,,,,,,,,
,,,,,1,"[0,0,1,1,1,1,1,1,0,1,1,1,0,1,1,1,1,1,1,1,1,1,1,1,1,1,1,1,1,1,1,1,1,1,1,1,1,1,1,1,1,1,1,1,1,1,1,1,1,1,1,0,0,0,0,0,1,1,1,1,1]",1,,,,,,stimuli/grey_butterfly.png,stimuli/white_butterfly.png,2,stimuli/yellow_flower.png,stimuli/red_flower.png,stimuli/green_flower.png,stimuli/blue_flower.png,down,stimuli/objects/bathtub.jpg,1,3,stimuli/white_butterfly.png,0,10,2021-01-15_14h38.30.826,premce3DEU_ses-02_part-01_label-phase1,2020.1.2,Win32,60,,,,,down,1,0.712,0,11,11,11,1,,,,,,,,
,,,,,1,"[0,0,1,1,1,1,1,1,0,1,1,1,0,1,1,1,1,1,1,1,1,1,1,1,1,1,1,1,1,1,1,1,1,1,1,1,1,1,1,1,1,1,1,1,1,1,1,1,1,1,1,0,0,0,0,0,1,1,1,1,1,1]",1,,,,,,stimuli/white_butterfly.png,stimuli/grey_butterfly.png,2,stimuli/yellow_flower.png,stimuli/red_flower.png,stimuli/green_flower.png,stimuli/blue_flower.png,left,stimuli/objects/spicerack.jpg,1,3,stimuli/grey_butterfly.png,0,10,2021-01-15_14h38.30.826,premce3DEU_ses-02_part-01_label-phase1,2020.1.2,Win32,60,,,,,left,1,0.91,0,12,12,12,1,,,,,,,,
,,,,,1,"[0,0,1,1,1,1,1,1,0,1,1,1,0,1,1,1,1,1,1,1,1,1,1,1,1,1,1,1,1,1,1,1,1,1,1,1,1,1,1,1,1,1,1,1,1,1,1,1,1,1,1,0,0,0,0,0,1,1,1,1,1,1,1]",1,,,,,,stimuli/grey_butterfly.png,stimuli/white_butterfly.png,1,stimuli/yellow_flower.png,stimuli/blue_flower.png,stimuli/red_flower.png,stimuli/green_flower.png,left,stimuli/objects/stepladder.jpg,1,3,stimuli/grey_butterfly.png,0,10,2021-01-15_14h38.30.826,premce3DEU_ses-02_part-01_label-phase1,2020.1.2,Win32,60,,,,,left,1,1.034,0,13,13,13,1,,,,,,,,
,,,,,1,"[0,0,1,1,1,1,1,1,0,1,1,1,0,1,1,1,1,1,1,1,1,1,1,1,1,1,1,1,1,1,1,1,1,1,1,1,1,1,1,1,1,1,1,1,1,1,1,1,1,1,1,0,0,0,0,0,1,1,1,1,1,1,1,1]",1,,,,,,stimuli/white_butterfly.png,stimuli/grey_butterfly.png,2,stimuli/blue_flower.png,stimuli/red_flower.png,stimuli/green_flower.png,stimuli/yellow_flower.png,right,stimuli/objects/snowshovel.jpg,1,3,stimuli/grey_butterfly.png,0,10,2021-01-15_14h38.30.826,premce3DEU_ses-02_part-01_label-phase1,2020.1.2,Win32,60,,,,,right,1,0.805,0,14,14,14,1,,,,,,,,
,,,,,1,"[0,0,1,1,1,1,1,1,0,1,1,1,0,1,1,1,1,1,1,1,1,1,1,1,1,1,1,1,1,1,1,1,1,1,1,1,1,1,1,1,1,1,1,1,1,1,1,1,1,1,1,0,0,0,0,0,1,1,1,1,1,1,1,1,1]",1,,,,,,stimuli/grey_butterfly.png,stimuli/white_butterfly.png,2,stimuli/green_flower.png,stimuli/yellow_flower.png,stimuli/blue_flower.png,stimuli/red_flower.png,left,stimuli/objects/seaturtle.jpg,1,3,stimuli/white_butterfly.png,0,10,2021-01-15_14h38.30.826,premce3DEU_ses-02_part-01_label-phase1,2020.1.2,Win32,60,,,,,left,1,0.578,0,15,15,15,1,,,,,,,,
,,,,,1,"[0,0,1,1,1,1,1,1,0,1,1,1,0,1,1,1,1,1,1,1,1,1,1,1,1,1,1,1,1,1,1,1,1,1,1,1,1,1,1,1,1,1,1,1,1,1,1,1,1,1,1,0,0,0,0,0,1,1,1,1,1,1,1,1,1,1]",1,,,,,,stimuli/white_butterfly.png,stimuli/grey_butterfly.png,1,stimuli/green_flower.png,stimuli/red_flower.png,stimuli/yellow_flower.png,stimuli/blue_flower.png,left,stimuli/objects/winniethepooh.jpg,1,3,stimuli/white_butterfly.png,0,10,2021-01-15_14h38.30.826,premce3DEU_ses-02_part-01_label-phase1,2020.1.2,Win32,60,,,,,left,1,0.653,0,16,16,16,1,,,,,,,,
,,,,,0,"[0,0,1,1,1,1,1,1,0,1,1,1,0,1,1,1,1,1,1,1,1,1,1,1,1,1,1,1,1,1,1,1,1,1,1,1,1,1,1,1,1,1,1,1,1,1,1,1,1,1,1,0,0,0,0,0,1,1,1,1,1,1,1,1,1,1,1]",1,,,,,,stimuli/grey_butterfly.png,stimuli/white_butterfly.png,1,stimuli/blue_flower.png,stimuli/yellow_flower.png,stimuli/red_flower.png,stimuli/green_flower.png,down,stimuli/objects/butterfly4.jpg,0,3,stimuli/grey_butterfly.png,0,10,2021-01-15_14h38.30.826,premce3DEU_ses-02_part-01_label-phase1,2020.1.2,Win32,60,,,,,up,0,1.139,0,17,17,17,1,,,,,,,,
,,,,,1,"[0,0,1,1,1,1,1,1,0,1,1,1,0,1,1,1,1,1,1,1,1,1,1,1,1,1,1,1,1,1,1,1,1,1,1,1,1,1,1,1,1,1,1,1,1,1,1,1,1,1,1,0,0,0,0,0,1,1,1,1,1,1,1,1,1,1,1]",1,,,,,,stimuli/grey_butterfly.png,stimuli/white_butterfly.png,2,stimuli/green_flower.png,stimuli/red_flower.png,stimuli/yellow_flower.png,stimuli/blue_flower.png,left,stimuli/objects/witchhat.jpg,1,3,stimuli/white_butterfly.png,0,10,2021-01-15_14h38.30.826,premce3DEU_ses-02_part-01_label-phase1,2020.1.2,Win32,60,,,,,left,1,1.758,0,18,18,18,1,,,,,,,,
,,,,,1,"[0,0,1,1,1,1,1,1,0,1,1,1,0,1,1,1,1,1,1,1,1,1,1,1,1,1,1,1,1,1,1,1,1,1,1,1,1,1,1,1,1,1,1,1,1,1,1,1,1,1,1,0,0,0,0,0,1,1,1,1,1,1,1,1,1,1,1,1]",1,,,,,,stimuli/grey_butterfly.png,stimuli/white_butterfly.png,1,stimuli/yellow_flower.png,stimuli/red_flower.png,stimuli/green_flower.png,stimuli/blue_flower.png,left,stimuli/objects/granolabar01.jpg,1,3,stimuli/grey_butterfly.png,0,10,2021-01-15_14h38.30.826,premce3DEU_ses-02_part-01_label-phase1,2020.1.2,Win32,60,,,,,left,1,1.001,0,19,19,19,1,,,,,,,,
,,,,,1,"[0,0,1,1,1,1,1,1,0,1,1,1,0,1,1,1,1,1,1,1,1,1,1,1,1,1,1,1,1,1,1,1,1,1,1,1,1,1,1,1,1,1,1,1,1,1,1,1,1,1,1,0,0,0,0,0,1,1,1,1,1,1,1,1,1,1,1,1,1]",1,,,,,,stimuli/white_butterfly.png,stimuli/grey_butterfly.png,1,stimuli/red_flower.png,stimuli/green_flower.png,stimuli/yellow_flower.png,stimuli/blue_flower.png,up,stimuli/objects/shovel01.jpg,1,3,stimuli/white_butterfly.png,0,10,2021-01-15_14h38.30.826,premce3DEU_ses-02_part-01_label-phase1,2020.1.2,Win32,60,,,,,up,1,0.688,0,20,20,20,1,,,,,,,,
,,,,,0,"[0,0,1,1,1,1,1,1,0,1,1,1,0,1,1,1,1,1,1,1,1,1,1,1,1,1,1,1,1,1,1,1,1,1,1,1,1,1,1,1,1,1,1,1,1,1,1,1,1,1,1,0,0,0,0,0,1,1,1,1,1,1,1,1,1,1,1,1,1,1]",1,,,,,,stimuli/grey_butterfly.png,stimuli/white_butterfly.png,1,stimuli/red_flower.png,stimuli/green_flower.png,stimuli/yellow_flower.png,stimuli/blue_flower.png,up,stimuli/objects/redonion.jpg,0,3,stimuli/grey_butterfly.png,1,10,2021-01-15_14h38.30.826,premce3DEU_ses-02_part-01_label-phase1,2020.1.2,Win32,60,,,,,down,0,0.875,0,21,21,21,1,,,,,,,,
,,,,,1,"[0,0,1,1,1,1,1,1,0,1,1,1,0,1,1,1,1,1,1,1,1,1,1,1,1,1,1,1,1,1,1,1,1,1,1,1,1,1,1,1,1,1,1,1,1,1,1,1,1,1,1,0,0,0,0,0,1,1,1,1,1,1,1,1,1,1,1,1,1,1]",1,,,,,,stimuli/white_butterfly.png,stimuli/grey_butterfly.png,1,stimuli/yellow_flower.png,stimuli/blue_flower.png,stimuli/green_flower.png,stimuli/red_flower.png,down,stimuli/objects/fluorescentlightbulb.jpg,1,3,stimuli/white_butterfly.png,1,10,2021-01-15_14h38.30.826,premce3DEU_ses-02_part-01_label-phase1,2020.1.2,Win32,60,,,,,down,1,0.763,0,22,22,22,1,,,,,,,,
,,,,,1,"[0,0,1,1,1,1,1,1,0,1,1,1,0,1,1,1,1,1,1,1,1,1,1,1,1,1,1,1,1,1,1,1,1,1,1,1,1,1,1,1,1,1,1,1,1,1,1,1,1,1,1,0,0,0,0,0,1,1,1,1,1,1,1,1,1,1,1,1,1,1,1]",1,,,,,,stimuli/grey_butterfly.png,stimuli/white_butterfly.png,1,stimuli/blue_flower.png,stimuli/red_flower.png,stimuli/yellow_flower.png,stimuli/green_flower.png,down,stimuli/objects/urinal.jpg,1,3,stimuli/grey_butterfly.png,1,10,2021-01-15_14h38.30.826,premce3DEU_ses-02_part-01_label-phase1,2020.1.2,Win32,60,,,,,down,1,0.819,0,23,23,23,1,,,,,,,,
,,,,,1,"[0,0,1,1,1,1,1,1,0,1,1,1,0,1,1,1,1,1,1,1,1,1,1,1,1,1,1,1,1,1,1,1,1,1,1,1,1,1,1,1,1,1,1,1,1,1,1,1,1,1,1,0,0,0,0,0,1,1,1,1,1,1,1,1,1,1,1,1,1,1,1,1]",1,,,,,,stimuli/white_butterfly.png,stimuli/grey_butterfly.png,2,stimuli/green_flower.png,stimuli/red_flower.png,stimuli/yellow_flower.png,stimuli/blue_flower.png,down,stimuli/objects/frisbee.jpg,1,3,stimuli/grey_butterfly.png,1,10,2021-01-15_14h38.30.826,premce3DEU_ses-02_part-01_label-phase1,2020.1.2,Win32,60,,,,,down,1,0.829,0,24,24,24,1,,,,,,,,
,,,,,0,"[0,0,1,1,1,1,1,1,0,1,1,1,0,1,1,1,1,1,1,1,1,1,1,1,1,1,1,1,1,1,1,1,1,1,1,1,1,1,1,1,1,1,1,1,1,1,1,1,1,1,1,0,0,0,0,0,1,1,1,1,1,1,1,1,1,1,1,1,1,1,1,1,1]",1,,,,,,stimuli/grey_butterfly.png,stimuli/white_butterfly.png,2,stimuli/yellow_flower.png,stimuli/green_flower.png,stimuli/blue_flower.png,stimuli/red_flower.png,down,stimuli/objects/horse.jpg,0,3,stimuli/white_butterfly.png,1,10,2021-01-15_14h38.30.826,premce3DEU_ses-02_part-01_label-phase1,2020.1.2,Win32,60,,,,,up,0,0.653,0,25,25,25,1,,,,,,,,
,,,,,0,"[0,0,1,1,1,1,1,1,0,1,1,1,0,1,1,1,1,1,1,1,1,1,1,1,1,1,1,1,1,1,1,1,1,1,1,1,1,1,1,1,1,1,1,1,1,1,1,1,1,1,1,0,0,0,0,0,1,1,1,1,1,1,1,1,1,1,1,1,1,1,1,1,1]",1,,,,,,stimuli/white_butterfly.png,stimuli/grey_butterfly.png,2,stimuli/blue_flower.png,stimuli/green_flower.png,stimuli/yellow_flower.png,stimuli/red_flower.png,left,stimuli/objects/tie02.jpg,0,3,stimuli/grey_butterfly.png,1,10,2021-01-15_14h38.30.826,premce3DEU_ses-02_part-01_label-phase1,2020.1.2,Win32,60,,,,,down,0,0.717,0,26,26,26,1,,,,,,,,
,,,,,1,"[0,0,1,1,1,1,1,1,0,1,1,1,0,1,1,1,1,1,1,1,1,1,1,1,1,1,1,1,1,1,1,1,1,1,1,1,1,1,1,1,1,1,1,1,1,1,1,1,1,1,1,0,0,0,0,0,1,1,1,1,1,1,1,1,1,1,1,1,1,1,1,1,1]",1,,,,,,stimuli/grey_butterfly.png,stimuli/white_butterfly.png,1,stimuli/green_flower.png,stimuli/red_flower.png,stimuli/blue_flower.png,stimuli/yellow_flower.png,right,stimuli/objects/porcupine.jpg,1,3,stimuli/grey_butterfly.png,1,10,2021-01-15_14h38.30.826,premce3DEU_ses-02_part-01_label-phase1,2020.1.2,Win32,60,,,,,right,1,1.998,0,27,27,27,1,,,,,,,,
,,,,,1,"[0,0,1,1,1,1,1,1,0,1,1,1,0,1,1,1,1,1,1,1,1,1,1,1,1,1,1,1,1,1,1,1,1,1,1,1,1,1,1,1,1,1,1,1,1,1,1,1,1,1,1,0,0,0,0,0,1,1,1,1,1,1,1,1,1,1,1,1,1,1,1,1,1,1]",1,,,,,,stimuli/white_butterfly.png,stimuli/grey_butterfly.png,1,stimuli/green_flower.png,stimuli/yellow_flower.png,stimuli/red_flower.png,stimuli/blue_flower.png,left,stimuli/objects/showerhead01.jpg,1,3,stimuli/white_butterfly.png,1,10,2021-01-15_14h38.30.826,premce3DEU_ses-02_part-01_label-phase1,2020.1.2,Win32,60,,,,,left,1,0.695,0,28,28,28,1,,,,,,,,
,,,,,1,"[0,0,1,1,1,1,1,1,0,1,1,1,0,1,1,1,1,1,1,1,1,1,1,1,1,1,1,1,1,1,1,1,1,1,1,1,1,1,1,1,1,1,1,1,1,1,1,1,1,1,1,0,0,0,0,0,1,1,1,1,1,1,1,1,1,1,1,1,1,1,1,1,1,1,1]",1,,,,,,stimuli/white_butterfly.png,stimuli/grey_butterfly.png,1,stimuli/blue_flower.png,stimuli/yellow_flower.png,stimuli/green_flower.png,stimuli/red_flower.png,down,stimuli/objects/handheldtelescope.jpg,1,3,stimuli/white_butterfly.png,1,10,2021-01-15_14h38.30.826,premce3DEU_ses-02_part-01_label-phase1,2020.1.2,Win32,60,,,,,down,1,0.686,0,29,29,29,1,,,,,,,,
,,,,,1,"[0,0,1,1,1,1,1,1,0,1,1,1,0,1,1,1,1,1,1,1,1,1,1,1,1,1,1,1,1,1,1,1,1,1,1,1,1,1,1,1,1,1,1,1,1,1,1,1,1,1,1,0,0,0,0,0,1,1,1,1,1,1,1,1,1,1,1,1,1,1,1,1,1,1,1,1]",1,,,,,,stimuli/grey_butterfly.png,stimuli/white_butterfly.png,1,stimuli/red_flower.png,stimuli/yellow_flower.png,stimuli/blue_flower.png,stimuli/green_flower.png,up,stimuli/objects/acorn.jpg,1,3,stimuli/grey_butterfly.png,1,10,2021-01-15_14h38.30.826,premce3DEU_ses-02_part-01_label-phase1,2020.1.2,Win32,60,,,,,up,1,1.812,0,30,30,30,1,,,,,,,,
,,,,,1,"[0,0,1,1,1,1,1,1,0,1,1,1,0,1,1,1,1,1,1,1,1,1,1,1,1,1,1,1,1,1,1,1,1,1,1,1,1,1,1,1,1,1,1,1,1,1,1,1,1,1,1,0,0,0,0,0,1,1,1,1,1,1,1,1,1,1,1,1,1,1,1,1,1,1,1,1,1]",1,,,,,,stimuli/grey_butterfly.png,stimuli/white_butterfly.png,2,stimuli/green_flower.png,stimuli/red_flower.png,stimuli/blue_flower.png,stimuli/yellow_flower.png,left,stimuli/objects/polarbear.jpg,1,3,stimuli/white_butterfly.png,1,10,2021-01-15_14h38.30.826,premce3DEU_ses-02_part-01_label-phase1,2020.1.2,Win32,60,,,,,left,1,0.787,0,31,31,31,1,,,,,,,,
,,,,,1,"[0,0,1,1,1,1,1,1,0,1,1,1,0,1,1,1,1,1,1,1,1,1,1,1,1,1,1,1,1,1,1,1,1,1,1,1,1,1,1,1,1,1,1,1,1,1,1,1,1,1,1,0,0,0,0,0,1,1,1,1,1,1,1,1,1,1,1,1,1,1,1,1,1,1,1,1,1,1]",1,,,,,,stimuli/white_butterfly.png,stimuli/grey_butterfly.png,1,stimuli/yellow_flower.png,stimuli/red_flower.png,stimuli/blue_flower.png,stimuli/green_flower.png,right,stimuli/objects/pirateflag.jpg,1,3,stimuli/white_butterfly.png,1,10,2021-01-15_14h38.30.826,premce3DEU_ses-02_part-01_label-phase1,2020.1.2,Win32,60,,,,,right,1,0.891,0,32,32,32,1,,,,,,,,
,,,,,1,"[0,0,1,1,1,1,1,1,0,1,1,1,0,1,1,1,1,1,1,1,1,1,1,1,1,1,1,1,1,1,1,1,1,1,1,1,1,1,1,1,1,1,1,1,1,1,1,1,1,1,1,0,0,0,0,0,1,1,1,1,1,1,1,1,1,1,1,1,1,1,1,1,1,1,1,1,1,1,1]",1,,,,,,stimuli/grey_butterfly.png,stimuli/white_butterfly.png,1,stimuli/green_flower.png,stimuli/red_flower.png,stimuli/yellow_flower.png,stimuli/blue_flower.png,down,stimuli/objects/seagull.jpg,1,3,stimuli/grey_butterfly.png,1,10,2021-01-15_14h38.30.826,premce3DEU_ses-02_part-01_label-phase1,2020.1.2,Win32,60,,,,,down,1,1.376,0,33,33,33,1,,,,,,,,
,,,,,1,"[0,0,1,1,1,1,1,1,0,1,1,1,0,1,1,1,1,1,1,1,1,1,1,1,1,1,1,1,1,1,1,1,1,1,1,1,1,1,1,1,1,1,1,1,1,1,1,1,1,1,1,0,0,0,0,0,1,1,1,1,1,1,1,1,1,1,1,1,1,1,1,1,1,1,1,1,1,1,1,1]",1,,,,,,stimuli/grey_butterfly.png,stimuli/white_butterfly.png,2,stimuli/red_flower.png,stimuli/blue_flower.png,stimuli/yellow_flower.png,stimuli/green_flower.png,right,stimuli/objects/toyanimal05.jpg,1,3,stimuli/white_butterfly.png,1,10,2021-01-15_14h38.30.826,premce3DEU_ses-02_part-01_label-phase1,2020.1.2,Win32,60,,,,,right,1,0.799,0,34,34,34,1,,,,,,,,
,,,,,1,"[0,0,1,1,1,1,1,1,0,1,1,1,0,1,1,1,1,1,1,1,1,1,1,1,1,1,1,1,1,1,1,1,1,1,1,1,1,1,1,1,1,1,1,1,1,1,1,1,1,1,1,0,0,0,0,0,1,1,1,1,1,1,1,1,1,1,1,1,1,1,1,1,1,1,1,1,1,1,1,1,1]",1,,,,,,stimuli/grey_butterfly.png,stimuli/white_butterfly.png,1,stimuli/blue_flower.png,stimuli/green_flower.png,stimuli/red_flower.png,stimuli/yellow_flower.png,right,stimuli/objects/greywolf.jpg,1,3,stimuli/grey_butterfly.png,1,10,2021-01-15_14h38.30.826,premce3DEU_ses-02_part-01_label-phase1,2020.1.2,Win32,60,,,,,right,1,0.974,0,35,35,35,1,,,,,,,,
,,,,,1,"[0,0,1,1,1,1,1,1,0,1,1,1,0,1,1,1,1,1,1,1,1,1,1,1,1,1,1,1,1,1,1,1,1,1,1,1,1,1,1,1,1,1,1,1,1,1,1,1,1,1,1,0,0,0,0,0,1,1,1,1,1,1,1,1,1,1,1,1,1,1,1,1,1,1,1,1,1,1,1,1,1,1]",1,,,,,,stimuli/grey_butterfly.png,stimuli/white_butterfly.png,1,stimuli/blue_flower.png,stimuli/green_flower.png,stimuli/yellow_flower.png,stimuli/red_flower.png,down,stimuli/objects/butterfly3.jpg,1,3,stimuli/grey_butterfly.png,1,10,2021-01-15_14h38.30.826,premce3DEU_ses-02_part-01_label-phase1,2020.1.2,Win32,60,,,,,down,1,0.954,0,36,36,36,1,,,,,,,,
,,,,,1,"[0,0,1,1,1,1,1,1,0,1,1,1,0,1,1,1,1,1,1,1,1,1,1,1,1,1,1,1,1,1,1,1,1,1,1,1,1,1,1,1,1,1,1,1,1,1,1,1,1,1,1,0,0,0,0,0,1,1,1,1,1,1,1,1,1,1,1,1,1,1,1,1,1,1,1,1,1,1,1,1,1,1,1]",1,,,,,,stimuli/grey_butterfly.png,stimuli/white_butterfly.png,1,stimuli/green_flower.png,stimuli/blue_flower.png,stimuli/red_flower.png,stimuli/yellow_flower.png,right,stimuli/objects/surfboard.jpg,1,3,stimuli/grey_butterfly.png,1,10,2021-01-15_14h38.30.826,premce3DEU_ses-02_part-01_label-phase1,2020.1.2,Win32,60,,,,,right,1,0.733,0,37,37,37,1,,,,,,,,
,,,,,1,"[0,0,1,1,1,1,1,1,0,1,1,1,0,1,1,1,1,1,1,1,1,1,1,1,1,1,1,1,1,1,1,1,1,1,1,1,1,1,1,1,1,1,1,1,1,1,1,1,1,1,1,0,0,0,0,0,1,1,1,1,1,1,1,1,1,1,1,1,1,1,1,1,1,1,1,1,1,1,1,1,1,1,1,1]",1,,,,,,stimuli/grey_butterfly.png,stimuli/white_butterfly.png,2,stimuli/yellow_flower.png,stimuli/blue_flower.png,stimuli/green_flower.png,stimuli/red_flower.png,down,stimuli/objects/donut.jpg,1,3,stimuli/white_butterfly.png,1,10,2021-01-15_14h38.30.826,premce3DEU_ses-02_part-01_label-phase1,2020.1.2,Win32,60,,,,,down,1,0.609,0,38,38,38,1,,,,,,,,
,,,,,0,"[0,0,1,1,1,1,1,1,0,1,1,1,0,1,1,1,1,1,1,1,1,1,1,1,1,1,1,1,1,1,1,1,1,1,1,1,1,1,1,1,1,1,1,1,1,1,1,1,1,1,1,0,0,0,0,0,1,1,1,1,1,1,1,1,1,1,1,1,1,1,1,1,1,1,1,1,1,1,1,1,1,1,1,1,1]",1,,,,,,stimuli/white_butterfly.png,stimuli/grey_butterfly.png,1,stimuli/green_flower.png,stimuli/red_flower.png,stimuli/blue_flower.png,stimuli/yellow_flower.png,up,stimuli/objects/duck01.jpg,0,3,stimuli/white_butterfly.png,1,10,2021-01-15_14h38.30.826,premce3DEU_ses-02_part-01_label-phase1,2020.1.2,Win32,60,,,,,left,0,1.201,0,39,39,39,1,,,,,,,,
,,,,,1,"[0,0,1,1,1,1,1,1,0,1,1,1,0,1,1,1,1,1,1,1,1,1,1,1,1,1,1,1,1,1,1,1,1,1,1,1,1,1,1,1,1,1,1,1,1,1,1,1,1,1,1,0,0,0,0,0,1,1,1,1,1,1,1,1,1,1,1,1,1,1,1,1,1,1,1,1,1,1,1,1,1,1,1,1,1]",1,,,,,,stimuli/grey_butterfly.png,stimuli/white_butterfly.png,1,stimuli/green_flower.png,stimuli/yellow_flower.png,stimuli/red_flower.png,stimuli/blue_flower.png,up,stimuli/objects/apron.jpg,1,3,stimuli/grey_butterfly.png,1,10,2021-01-15_14h38.30.826,premce3DEU_ses-02_part-01_label-phase1,2020.1.2,Win32,60,,,,,up,1,0.655,0,40,40,40,1,,,,,,,,
,,,,,1,"[0,0,1,1,1,1,1,1,0,1,1,1,0,1,1,1,1,1,1,1,1,1,1,1,1,1,1,1,1,1,1,1,1,1,1,1,1,1,1,1,1,1,1,1,1,1,1,1,1,1,1,0,0,0,0,0,1,1,1,1,1,1,1,1,1,1,1,1,1,1,1,1,1,1,1,1,1,1,1,1,1,1,1,1,1,1]",1,,,,,,stimuli/grey_butterfly.png,stimuli/white_butterfly.png,1,stimuli/red_flower.png,stimuli/green_flower.png,stimuli/blue_flower.png,stimuli/yellow_flower.png,right,stimuli/objects/footballhelmet.jpg,1,3,stimuli/grey_butterfly.png,1,10,2021-01-15_14h38.30.826,premce3DEU_ses-02_part-01_label-phase1,2020.1.2,Win32,60,,,,,right,1,1.124,0,41,41,41,1,,,,,,,,
,,,,,,,,,,,,,,,,,,,,,,,,,,10,2021-01-15_14h38.30.826,premce3DEU_ses-02_part-01_label-phase1,2020.1.2,Win32,60,,,,,,,,,,,,,0,1,1,1,1,condition_files/tasklistB3.csv,,
,,,,,0,"[0,0,1,1,1,1,1,1,0,1,1,1,0,1,1,1,1,1,1,1,1,1,1,1,1,1,1,1,1,1,1,1,1,1,1,1,1,1,1,1,1,1,1,1,1,1,1,1,1,1,1,0,0,0,0,0,1,1,1,1,1,1,1,1,1,1,1,1,1,1,1,1,1,1,1,1,1,1,1,1,1,1,1,1,1,1,1]",0,,,,,,stimuli/white_butterfly.png,stimuli/grey_butterfly.png,1,stimuli/yellow_flower.png,stimuli/blue_flower.png,stimuli/green_flower.png,stimuli/red_flower.png,left,stimuli/objects/christmaslights.jpg,1,4,stimuli/white_butterfly.png,0,10,2021-01-15_14h38.30.826,premce3DEU_ses-02_part-01_label-phase1,2020.1.2,Win32,60,,,,,down,0,0.565,0,0,0,0,1,,,,,,,,
,,,,,0,"[0,0,1,1,1,1,1,1,0,1,1,1,0,1,1,1,1,1,1,1,1,1,1,1,1,1,1,1,1,1,1,1,1,1,1,1,1,1,1,1,1,1,1,1,1,1,1,1,1,1,1,0,0,0,0,0,1,1,1,1,1,1,1,1,1,1,1,1,1,1,1,1,1,1,1,1,1,1,1,1,1,1,1,1,1,1,1,0]",0,,,,,,stimuli/grey_butterfly.png,stimuli/white_butterfly.png,1,stimuli/red_flower.png,stimuli/yellow_flower.png,stimuli/green_flower.png,stimuli/blue_flower.png,right,stimuli/objects/zebra.jpg,1,4,stimuli/grey_butterfly.png,0,10,2021-01-15_14h38.30.826,premce3DEU_ses-02_part-01_label-phase1,2020.1.2,Win32,60,,,,,up,0,1.304,0,1,1,1,1,,,,,,,,
,,,,,0,"[0,0,1,1,1,1,1,1,0,1,1,1,0,1,1,1,1,1,1,1,1,1,1,1,1,1,1,1,1,1,1,1,1,1,1,1,1,1,1,1,1,1,1,1,1,1,1,1,1,1,1,0,0,0,0,0,1,1,1,1,1,1,1,1,1,1,1,1,1,1,1,1,1,1,1,1,1,1,1,1,1,1,1,1,1,1,1,0,0]",0,,,,,,stimuli/white_butterfly.png,stimuli/grey_butterfly.png,2,stimuli/blue_flower.png,stimuli/red_flower.png,stimuli/yellow_flower.png,stimuli/green_flower.png,left,stimuli/objects/giraffe.jpg,1,4,stimuli/grey_butterfly.png,0,10,2021-01-15_14h38.30.826,premce3DEU_ses-02_part-01_label-phase1,2020.1.2,Win32,60,,,,,down,0,1.338,0,2,2,2,1,,,,,,,,
,,,,,0,"[0,0,1,1,1,1,1,1,0,1,1,1,0,1,1,1,1,1,1,1,1,1,1,1,1,1,1,1,1,1,1,1,1,1,1,1,1,1,1,1,1,1,1,1,1,1,1,1,1,1,1,0,0,0,0,0,1,1,1,1,1,1,1,1,1,1,1,1,1,1,1,1,1,1,1,1,1,1,1,1,1,1,1,1,1,1,1,0,0,0]",0,,,,,,stimuli/grey_butterfly.png,stimuli/white_butterfly.png,2,stimuli/blue_flower.png,stimuli/red_flower.png,stimuli/yellow_flower.png,stimuli/green_flower.png,down,stimuli/objects/mirror02.jpg,1,4,stimuli/white_butterfly.png,0,10,2021-01-15_14h38.30.826,premce3DEU_ses-02_part-01_label-phase1,2020.1.2,Win32,60,,,,,right,0,0.688,0,3,3,3,1,,,,,,,,
,,,,,1,"[0,0,1,1,1,1,1,1,0,1,1,1,0,1,1,1,1,1,1,1,1,1,1,1,1,1,1,1,1,1,1,1,1,1,1,1,1,1,1,1,1,1,1,1,1,1,1,1,1,1,1,0,0,0,0,0,1,1,1,1,1,1,1,1,1,1,1,1,1,1,1,1,1,1,1,1,1,1,1,1,1,1,1,1,1,1,1,0,0,0,0]",1,,,,,,stimuli/white_butterfly.png,stimuli/grey_butterfly.png,1,stimuli/blue_flower.png,stimuli/green_flower.png,stimuli/yellow_flower.png,stimuli/red_flower.png,down,stimuli/objects/recyclingbin.jpg,1,4,stimuli/white_butterfly.png,0,10,2021-01-15_14h38.30.826,premce3DEU_ses-02_part-01_label-phase1,2020.1.2,Win32,60,,,,,down,1,0.719,0,4,4,4,1,,,,,,,,
,,,,,1,"[0,0,1,1,1,1,1,1,0,1,1,1,0,1,1,1,1,1,1,1,1,1,1,1,1,1,1,1,1,1,1,1,1,1,1,1,1,1,1,1,1,1,1,1,1,1,1,1,1,1,1,0,0,0,0,0,1,1,1,1,1,1,1,1,1,1,1,1,1,1,1,1,1,1,1,1,1,1,1,1,1,1,1,1,1,1,1,0,0,0,0,1]",1,,,,,,stimuli/white_butterfly.png,stimuli/grey_butterfly.png,1,stimuli/red_flower.png,stimuli/blue_flower.png,stimuli/yellow_flower.png,stimuli/green_flower.png,down,stimuli/objects/fishingrod.jpg,1,4,stimuli/white_butterfly.png,0,10,2021-01-15_14h38.30.826,premce3DEU_ses-02_part-01_label-phase1,2020.1.2,Win32,60,,,,,down,1,0.604,0,5,5,5,1,,,,,,,,
,,,,,1,"[0,0,1,1,1,1,1,1,0,1,1,1,0,1,1,1,1,1,1,1,1,1,1,1,1,1,1,1,1,1,1,1,1,1,1,1,1,1,1,1,1,1,1,1,1,1,1,1,1,1,1,0,0,0,0,0,1,1,1,1,1,1,1,1,1,1,1,1,1,1,1,1,1,1,1,1,1,1,1,1,1,1,1,1,1,1,1,0,0,0,0,1,1]",1,,,,,,stimuli/grey_butterfly.png,stimuli/white_butterfly.png,2,stimuli/green_flower.png,stimuli/red_flower.png,stimuli/blue_flower.png,stimuli/yellow_flower.png,right,stimuli/objects/barn.jpg,1,4,stimuli/white_butterfly.png,0,10,2021-01-15_14h38.30.826,premce3DEU_ses-02_part-01_label-phase1,2020.1.2,Win32,60,,,,,right,1,0.709,0,6,6,6,1,,,,,,,,
,,,,,1,"[0,0,1,1,1,1,1,1,0,1,1,1,0,1,1,1,1,1,1,1,1,1,1,1,1,1,1,1,1,1,1,1,1,1,1,1,1,1,1,1,1,1,1,1,1,1,1,1,1,1,1,0,0,0,0,0,1,1,1,1,1,1,1,1,1,1,1,1,1,1,1,1,1,1,1,1,1,1,1,1,1,1,1,1,1,1,1,0,0,0,0,1,1,1]",1,,,,,,stimuli/white_butterfly.png,stimuli/grey_butterfly.png,2,stimuli/blue_flower.png,stimuli/yellow_flower.png,stimuli/green_flower.png,stimuli/red_flower.png,left,stimuli/objects/lightswitch01.jpg,1,4,stimuli/grey_butterfly.png,0,10,2021-01-15_14h38.30.826,premce3DEU_ses-02_part-01_label-phase1,2020.1.2,Win32,60,,,,,left,1,0.866,0,7,7,7,1,,,,,,,,
,,,,,1,"[0,0,1,1,1,1,1,1,0,1,1,1,0,1,1,1,1,1,1,1,1,1,1,1,1,1,1,1,1,1,1,1,1,1,1,1,1,1,1,1,1,1,1,1,1,1,1,1,1,1,1,0,0,0,0,0,1,1,1,1,1,1,1,1,1,1,1,1,1,1,1,1,1,1,1,1,1,1,1,1,1,1,1,1,1,1,1,0,0,0,0,1,1,1,1]",1,,,,,,stimuli/white_butterfly.png,stimuli/grey_butterfly.png,2,stimuli/red_flower.png,stimuli/green_flower.png,stimuli/blue_flower.png,stimuli/yellow_flower.png,down,stimuli/objects/birdfeeder.jpg,1,4,stimuli/grey_butterfly.png,0,10,2021-01-15_14h38.30.826,premce3DEU_ses-02_part-01_label-phase1,2020.1.2,Win32,60,,,,,down,1,1.063,0,8,8,8,1,,,,,,,,
,,,,,0,"[0,0,1,1,1,1,1,1,0,1,1,1,0,1,1,1,1,1,1,1,1,1,1,1,1,1,1,1,1,1,1,1,1,1,1,1,1,1,1,1,1,1,1,1,1,1,1,1,1,1,1,0,0,0,0,0,1,1,1,1,1,1,1,1,1,1,1,1,1,1,1,1,1,1,1,1,1,1,1,1,1,1,1,1,1,1,1,0,0,0,0,1,1,1,1,1]",1,,,,,,stimuli/grey_butterfly.png,stimuli/white_butterfly.png,2,stimuli/blue_flower.png,stimuli/red_flower.png,stimuli/green_flower.png,stimuli/yellow_flower.png,left,stimuli/objects/beaver.jpg,0,4,stimuli/white_butterfly.png,0,10,2021-01-15_14h38.30.826,premce3DEU_ses-02_part-01_label-phase1,2020.1.2,Win32,60,,,,,right,0,0.519,0,9,9,9,1,,,,,,,,
,,,,,0,"[0,0,1,1,1,1,1,1,0,1,1,1,0,1,1,1,1,1,1,1,1,1,1,1,1,1,1,1,1,1,1,1,1,1,1,1,1,1,1,1,1,1,1,1,1,1,1,1,1,1,1,0,0,0,0,0,1,1,1,1,1,1,1,1,1,1,1,1,1,1,1,1,1,1,1,1,1,1,1,1,1,1,1,1,1,1,1,0,0,0,0,1,1,1,1,1]",1,,,,,,stimuli/grey_butterfly.png,stimuli/white_butterfly.png,1,stimuli/yellow_flower.png,stimuli/green_flower.png,stimuli/red_flower.png,stimuli/blue_flower.png,left,stimuli/objects/communitymailbox.jpg,0,4,stimuli/grey_butterfly.png,0,10,2021-01-15_14h38.30.826,premce3DEU_ses-02_part-01_label-phase1,2020.1.2,Win32,60,,,,,right,0,0.955,0,10,10,10,1,,,,,,,,
,,,,,0,"[0,0,1,1,1,1,1,1,0,1,1,1,0,1,1,1,1,1,1,1,1,1,1,1,1,1,1,1,1,1,1,1,1,1,1,1,1,1,1,1,1,1,1,1,1,1,1,1,1,1,1,0,0,0,0,0,1,1,1,1,1,1,1,1,1,1,1,1,1,1,1,1,1,1,1,1,1,1,1,1,1,1,1,1,1,1,1,0,0,0,0,1,1,1,1,1]",0,,,,,,stimuli/white_butterfly.png,stimuli/grey_butterfly.png,1,stimuli/green_flower.png,stimuli/yellow_flower.png,stimuli/red_flower.png,stimuli/blue_flower.png,up,stimuli/objects/cannon.jpg,1,4,stimuli/white_butterfly.png,0,10,2021-01-15_14h38.30.826,premce3DEU_ses-02_part-01_label-phase1,2020.1.2,Win32,60,,,,,right,0,1.443,0,11,11,11,1,,,,,,,,
,,,,,1,"[0,0,1,1,1,1,1,1,0,1,1,1,0,1,1,1,1,1,1,1,1,1,1,1,1,1,1,1,1,1,1,1,1,1,1,1,1,1,1,1,1,1,1,1,1,1,1,1,1,1,1,0,0,0,0,0,1,1,1,1,1,1,1,1,1,1,1,1,1,1,1,1,1,1,1,1,1,1,1,1,1,1,1,1,1,1,1,0,0,0,0,1,1,1,1,1,0]",1,,,,,,stimuli/grey_butterfly.png,stimuli/white_butterfly.png,1,stimuli/blue_flower.png,stimuli/red_flower.png,stimuli/yellow_flower.png,stimuli/green_flower.png,left,stimuli/objects/coffeemachine.jpg,1,4,stimuli/grey_butterfly.png,0,10,2021-01-15_14h38.30.826,premce3DEU_ses-02_part-01_label-phase1,2020.1.2,Win32,60,,,,,left,1,0.928,0,12,12,12,1,,,,,,,,
,,,,,1,"[0,0,1,1,1,1,1,1,0,1,1,1,0,1,1,1,1,1,1,1,1,1,1,1,1,1,1,1,1,1,1,1,1,1,1,1,1,1,1,1,1,1,1,1,1,1,1,1,1,1,1,0,0,0,0,0,1,1,1,1,1,1,1,1,1,1,1,1,1,1,1,1,1,1,1,1,1,1,1,1,1,1,1,1,1,1,1,0,0,0,0,1,1,1,1,1,0,1]",1,,,,,,stimuli/grey_butterfly.png,stimuli/white_butterfly.png,2,stimuli/red_flower.png,stimuli/green_flower.png,stimuli/blue_flower.png,stimuli/yellow_flower.png,right,stimuli/objects/treestump.jpg,1,4,stimuli/white_butterfly.png,0,10,2021-01-15_14h38.30.826,premce3DEU_ses-02_part-01_label-phase1,2020.1.2,Win32,60,,,,,right,1,0.636,0,13,13,13,1,,,,,,,,
,,,,,1,"[0,0,1,1,1,1,1,1,0,1,1,1,0,1,1,1,1,1,1,1,1,1,1,1,1,1,1,1,1,1,1,1,1,1,1,1,1,1,1,1,1,1,1,1,1,1,1,1,1,1,1,0,0,0,0,0,1,1,1,1,1,1,1,1,1,1,1,1,1,1,1,1,1,1,1,1,1,1,1,1,1,1,1,1,1,1,1,0,0,0,0,1,1,1,1,1,0,1,1]",1,,,,,,stimuli/white_butterfly.png,stimuli/grey_butterfly.png,2,stimuli/blue_flower.png,stimuli/green_flower.png,stimuli/red_flower.png,stimuli/yellow_flower.png,left,stimuli/objects/panda.jpg,1,4,stimuli/grey_butterfly.png,0,10,2021-01-15_14h38.30.826,premce3DEU_ses-02_part-01_label-phase1,2020.1.2,Win32,60,,,,,left,1,1.197,0,14,14,14,1,,,,,,,,
,,,,,1,"[0,0,1,1,1,1,1,1,0,1,1,1,0,1,1,1,1,1,1,1,1,1,1,1,1,1,1,1,1,1,1,1,1,1,1,1,1,1,1,1,1,1,1,1,1,1,1,1,1,1,1,0,0,0,0,0,1,1,1,1,1,1,1,1,1,1,1,1,1,1,1,1,1,1,1,1,1,1,1,1,1,1,1,1,1,1,1,0,0,0,0,1,1,1,1,1,0,1,1,1]",1,,,,,,stimuli/white_butterfly.png,stimuli/grey_butterfly.png,2,stimuli/yellow_flower.png,stimuli/blue_flower.png,stimuli/red_flower.png,stimuli/green_flower.png,up,stimuli/objects/butterfly2.jpg,1,4,stimuli/grey_butterfly.png,0,10,2021-01-15_14h38.30.826,premce3DEU_ses-02_part-01_label-phase1,2020.1.2,Win32,60,,,,,up,1,0.622,0,15,15,15,1,,,,,,,,
,,,,,0,"[0,0,1,1,1,1,1,1,0,1,1,1,0,1,1,1,1,1,1,1,1,1,1,1,1,1,1,1,1,1,1,1,1,1,1,1,1,1,1,1,1,1,1,1,1,1,1,1,1,1,1,0,0,0,0,0,1,1,1,1,1,1,1,1,1,1,1,1,1,1,1,1,1,1,1,1,1,1,1,1,1,1,1,1,1,1,1,0,0,0,0,1,1,1,1,1,0,1,1,1,1]",1,,,,,,stimuli/grey_butterfly.png,stimuli/white_butterfly.png,1,stimuli/blue_flower.png,stimuli/yellow_flower.png,stimuli/red_flower.png,stimuli/green_flower.png,down,stimuli/objects/exitsign.jpg,0,4,stimuli/grey_butterfly.png,0,10,2021-01-15_14h38.30.826,premce3DEU_ses-02_part-01_label-phase1,2020.1.2,Win32,60,,,,,left,0,0.72,0,16,16,16,1,,,,,,,,
,,,,,0,"[0,0,1,1,1,1,1,1,0,1,1,1,0,1,1,1,1,1,1,1,1,1,1,1,1,1,1,1,1,1,1,1,1,1,1,1,1,1,1,1,1,1,1,1,1,1,1,1,1,1,1,0,0,0,0,0,1,1,1,1,1,1,1,1,1,1,1,1,1,1,1,1,1,1,1,1,1,1,1,1,1,1,1,1,1,1,1,0,0,0,0,1,1,1,1,1,0,1,1,1,1]",1,,,,,,stimuli/grey_butterfly.png,stimuli/white_butterfly.png,2,stimuli/yellow_flower.png,stimuli/blue_flower.png,stimuli/green_flower.png,stimuli/red_flower.png,right,stimuli/objects/lintroller.jpg,0,4,stimuli/white_butterfly.png,0,10,2021-01-15_14h38.30.826,premce3DEU_ses-02_part-01_label-phase1,2020.1.2,Win32,60,,,,,left,0,1.434,0,17,17,17,1,,,,,,,,
,,,,,1,"[0,0,1,1,1,1,1,1,0,1,1,1,0,1,1,1,1,1,1,1,1,1,1,1,1,1,1,1,1,1,1,1,1,1,1,1,1,1,1,1,1,1,1,1,1,1,1,1,1,1,1,0,0,0,0,0,1,1,1,1,1,1,1,1,1,1,1,1,1,1,1,1,1,1,1,1,1,1,1,1,1,1,1,1,1,1,1,0,0,0,0,1,1,1,1,1,0,1,1,1,1]",1,,,,,,stimuli/white_butterfly.png,stimuli/grey_butterfly.png,2,stimuli/yellow_flower.png,stimuli/green_flower.png,stimuli/red_flower.png,stimuli/blue_flower.png,right,stimuli/objects/cymbal.jpg,1,4,stimuli/grey_butterfly.png,0,10,2021-01-15_14h38.30.826,premce3DEU_ses-02_part-01_label-phase1,2020.1.2,Win32,60,,,,,right,1,1.248,0,18,18,18,1,,,,,,,,
,,,,,1,"[0,0,1,1,1,1,1,1,0,1,1,1,0,1,1,1,1,1,1,1,1,1,1,1,1,1,1,1,1,1,1,1,1,1,1,1,1,1,1,1,1,1,1,1,1,1,1,1,1,1,1,0,0,0,0,0,1,1,1,1,1,1,1,1,1,1,1,1,1,1,1,1,1,1,1,1,1,1,1,1,1,1,1,1,1,1,1,0,0,0,0,1,1,1,1,1,0,1,1,1,1,1]",1,,,,,,stimuli/white_butterfly.png,stimuli/grey_butterfly.png,1,stimuli/green_flower.png,stimuli/red_flower.png,stimuli/blue_flower.png,stimuli/yellow_flower.png,right,stimuli/objects/baseballglove.jpg,1,4,stimuli/white_butterfly.png,0,10,2021-01-15_14h38.30.826,premce3DEU_ses-02_part-01_label-phase1,2020.1.2,Win32,60,,,,,right,1,1.314,0,19,19,19,1,,,,,,,,
,,,,,0,"[0,0,1,1,1,1,1,1,0,1,1,1,0,1,1,1,1,1,1,1,1,1,1,1,1,1,1,1,1,1,1,1,1,1,1,1,1,1,1,1,1,1,1,1,1,1,1,1,1,1,1,0,0,0,0,0,1,1,1,1,1,1,1,1,1,1,1,1,1,1,1,1,1,1,1,1,1,1,1,1,1,1,1,1,1,1,1,0,0,0,0,1,1,1,1,1,0,1,1,1,1,1,1]",1,,,,,,stimuli/white_butterfly.png,stimuli/grey_butterfly.png,2,stimuli/blue_flower.png,stimuli/green_flower.png,stimuli/yellow_flower.png,stimuli/red_flower.png,up,stimuli/objects/shelves.jpg,0,4,stimuli/grey_butterfly.png,0,10,2021-01-15_14h38.30.826,premce3DEU_ses-02_part-01_label-phase1,2020.1.2,Win32,60,,,,,left,0,0.672,0,20,20,20,1,,,,,,,,
,,,,,1,"[0,0,1,1,1,1,1,1,0,1,1,1,0,1,1,1,1,1,1,1,1,1,1,1,1,1,1,1,1,1,1,1,1,1,1,1,1,1,1,1,1,1,1,1,1,1,1,1,1,1,1,0,0,0,0,0,1,1,1,1,1,1,1,1,1,1,1,1,1,1,1,1,1,1,1,1,1,1,1,1,1,1,1,1,1,1,1,0,0,0,0,1,1,1,1,1,0,1,1,1,1,1,1]",1,,,,,,stimuli/white_butterfly.png,stimuli/grey_butterfly.png,2,stimuli/yellow_flower.png,stimuli/red_flower.png,stimuli/green_flower.png,stimuli/blue_flower.png,right,stimuli/objects/weddingcake.jpg,1,4,stimuli/grey_butterfly.png,1,10,2021-01-15_14h38.30.826,premce3DEU_ses-02_part-01_label-phase1,2020.1.2,Win32,60,,,,,right,1,0.962,0,21,21,21,1,,,,,,,,
,,,,,0,"[0,0,1,1,1,1,1,1,0,1,1,1,0,1,1,1,1,1,1,1,1,1,1,1,1,1,1,1,1,1,1,1,1,1,1,1,1,1,1,1,1,1,1,1,1,1,1,1,1,1,1,0,0,0,0,0,1,1,1,1,1,1,1,1,1,1,1,1,1,1,1,1,1,1,1,1,1,1,1,1,1,1,1,1,1,1,1,0,0,0,0,1,1,1,1,1,0,1,1,1,1,1,1,1]",0,,,,,,stimuli/grey_butterfly.png,stimuli/white_butterfly.png,1,stimuli/red_flower.png,stimuli/blue_flower.png,stimuli/green_flower.png,stimuli/yellow_flower.png,up,stimuli/objects/key07.jpg,1,4,stimuli/grey_butterfly.png,1,10,2021-01-15_14h38.30.826,premce3DEU_ses-02_part-01_label-phase1,2020.1.2,Win32,60,,,,,right,0,1.724,0,22,22,22,1,,,,,,,,
,,,,,1,"[0,0,1,1,1,1,1,1,0,1,1,1,0,1,1,1,1,1,1,1,1,1,1,1,1,1,1,1,1,1,1,1,1,1,1,1,1,1,1,1,1,1,1,1,1,1,1,1,1,1,1,0,0,0,0,0,1,1,1,1,1,1,1,1,1,1,1,1,1,1,1,1,1,1,1,1,1,1,1,1,1,1,1,1,1,1,1,0,0,0,0,1,1,1,1,1,0,1,1,1,1,1,1,1,0]",1,,,,,,stimuli/white_butterfly.png,stimuli/grey_butterfly.png,1,stimuli/red_flower.png,stimuli/green_flower.png,stimuli/blue_flower.png,stimuli/yellow_flower.png,right,stimuli/objects/tricycle.jpg,1,4,stimuli/white_butterfly.png,1,10,2021-01-15_14h38.30.826,premce3DEU_ses-02_part-01_label-phase1,2020.1.2,Win32,60,,,,,right,1,1.189,0,23,23,23,1,,,,,,,,
,,,,,1,"[0,0,1,1,1,1,1,1,0,1,1,1,0,1,1,1,1,1,1,1,1,1,1,1,1,1,1,1,1,1,1,1,1,1,1,1,1,1,1,1,1,1,1,1,1,1,1,1,1,1,1,0,0,0,0,0,1,1,1,1,1,1,1,1,1,1,1,1,1,1,1,1,1,1,1,1,1,1,1,1,1,1,1,1,1,1,1,0,0,0,0,1,1,1,1,1,0,1,1,1,1,1,1,1,0,1]",1,,,,,,stimuli/white_butterfly.png,stimuli/grey_butterfly.png,2,stimuli/blue_flower.png,stimuli/red_flower.png,stimuli/green_flower.png,stimuli/yellow_flower.png,left,stimuli/objects/escalator.jpg,1,4,stimuli/grey_butterfly.png,1,10,2021-01-15_14h38.30.826,premce3DEU_ses-02_part-01_label-phase1,2020.1.2,Win32,60,,,,,left,1,0.663,0,24,24,24,1,,,,,,,,
,,,,,1,"[0,0,1,1,1,1,1,1,0,1,1,1,0,1,1,1,1,1,1,1,1,1,1,1,1,1,1,1,1,1,1,1,1,1,1,1,1,1,1,1,1,1,1,1,1,1,1,1,1,1,1,0,0,0,0,0,1,1,1,1,1,1,1,1,1,1,1,1,1,1,1,1,1,1,1,1,1,1,1,1,1,1,1,1,1,1,1,0,0,0,0,1,1,1,1,1,0,1,1,1,1,1,1,1,0,1,1]",1,,,,,,stimuli/grey_butterfly.png,stimuli/white_butterfly.png,1,stimuli/yellow_flower.png,stimuli/red_flower.png,stimuli/green_flower.png,stimuli/blue_flower.png,right,stimuli/objects/volleyball.jpg,1,4,stimuli/grey_butterfly.png,1,10,2021-01-15_14h38.30.826,premce3DEU_ses-02_part-01_label-phase1,2020.1.2,Win32,60,,,,,right,1,0.71,0,25,25,25,1,,,,,,,,
,,,,,1,"[0,0,1,1,1,1,1,1,0,1,1,1,0,1,1,1,1,1,1,1,1,1,1,1,1,1,1,1,1,1,1,1,1,1,1,1,1,1,1,1,1,1,1,1,1,1,1,1,1,1,1,0,0,0,0,0,1,1,1,1,1,1,1,1,1,1,1,1,1,1,1,1,1,1,1,1,1,1,1,1,1,1,1,1,1,1,1,0,0,0,0,1,1,1,1,1,0,1,1,1,1,1,1,1,0,1,1,1]",1,,,,,,stimuli/grey_butterfly.png,stimuli/white_butterfly.png,1,stimuli/red_flower.png,stimuli/green_flower.png,stimuli/blue_flower.png,stimuli/yellow_flower.png,down,stimuli/objects/football.jpg,1,4,stimuli/grey_butterfly.png,1,10,2021-01-15_14h38.30.826,premce3DEU_ses-02_part-01_label-phase1,2020.1.2,Win32,60,,,,,down,1,0.63,0,26,26,26,1,,,,,,,,
,,,,,1,"[0,0,1,1,1,1,1,1,0,1,1,1,0,1,1,1,1,1,1,1,1,1,1,1,1,1,1,1,1,1,1,1,1,1,1,1,1,1,1,1,1,1,1,1,1,1,1,1,1,1,1,0,0,0,0,0,1,1,1,1,1,1,1,1,1,1,1,1,1,1,1,1,1,1,1,1,1,1,1,1,1,1,1,1,1,1,1,0,0,0,0,1,1,1,1,1,0,1,1,1,1,1,1,1,0,1,1,1,1]",1,,,,,,stimuli/white_butterfly.png,stimuli/grey_butterfly.png,1,stimuli/red_flower.png,stimuli/yellow_flower.png,stimuli/blue_flower.png,stimuli/green_flower.png,up,stimuli/objects/windturbine.jpg,1,4,stimuli/white_butterfly.png,1,10,2021-01-15_14h38.30.826,premce3DEU_ses-02_part-01_label-phase1,2020.1.2,Win32,60,,,,,up,1,1.377,0,27,27,27,1,,,,,,,,
,,,,,1,"[0,0,1,1,1,1,1,1,0,1,1,1,0,1,1,1,1,1,1,1,1,1,1,1,1,1,1,1,1,1,1,1,1,1,1,1,1,1,1,1,1,1,1,1,1,1,1,1,1,1,1,0,0,0,0,0,1,1,1,1,1,1,1,1,1,1,1,1,1,1,1,1,1,1,1,1,1,1,1,1,1,1,1,1,1,1,1,0,0,0,0,1,1,1,1,1,0,1,1,1,1,1,1,1,0,1,1,1,1,1]",1,,,,,,stimuli/grey_butterfly.png,stimuli/white_butterfly.png,2,stimuli/green_flower.png,stimuli/yellow_flower.png,stimuli/red_flower.png,stimuli/blue_flower.png,up,stimuli/objects/locomotive.jpg,1,4,stimuli/white_butterfly.png,1,10,2021-01-15_14h38.30.826,premce3DEU_ses-02_part-01_label-phase1,2020.1.2,Win32,60,,,,,up,1,1.279,0,28,28,28,1,,,,,,,,
,,,,,1,"[0,0,1,1,1,1,1,1,0,1,1,1,0,1,1,1,1,1,1,1,1,1,1,1,1,1,1,1,1,1,1,1,1,1,1,1,1,1,1,1,1,1,1,1,1,1,1,1,1,1,1,0,0,0,0,0,1,1,1,1,1,1,1,1,1,1,1,1,1,1,1,1,1,1,1,1,1,1,1,1,1,1,1,1,1,1,1,0,0,0,0,1,1,1,1,1,0,1,1,1,1,1,1,1,0,1,1,1,1,1,1]",1,,,,,,stimuli/white_butterfly.png,stimuli/grey_butterfly.png,1,stimuli/yellow_flower.png,stimuli/green_flower.png,stimuli/red_flower.png,stimuli/blue_flower.png,left,stimuli/objects/bowlingpin.jpg,1,4,stimuli/white_butterfly.png,1,10,2021-01-15_14h38.30.826,premce3DEU_ses-02_part-01_label-phase1,2020.1.2,Win32,60,,,,,left,1,1.309,0,29,29,29,1,,,,,,,,
,,,,,1,"[0,0,1,1,1,1,1,1,0,1,1,1,0,1,1,1,1,1,1,1,1,1,1,1,1,1,1,1,1,1,1,1,1,1,1,1,1,1,1,1,1,1,1,1,1,1,1,1,1,1,1,0,0,0,0,0,1,1,1,1,1,1,1,1,1,1,1,1,1,1,1,1,1,1,1,1,1,1,1,1,1,1,1,1,1,1,1,0,0,0,0,1,1,1,1,1,0,1,1,1,1,1,1,1,0,1,1,1,1,1,1,1]",1,,,,,,stimuli/white_butterfly.png,stimuli/grey_butterfly.png,1,stimuli/blue_flower.png,stimuli/green_flower.png,stimuli/red_flower.png,stimuli/yellow_flower.png,right,stimuli/objects/musicstand.jpg,1,4,stimuli/white_butterfly.png,1,10,2021-01-15_14h38.30.826,premce3DEU_ses-02_part-01_label-phase1,2020.1.2,Win32,60,,,,,right,1,0.652,0,30,30,30,1,,,,,,,,
,,,,,0,"[0,0,1,1,1,1,1,1,0,1,1,1,0,1,1,1,1,1,1,1,1,1,1,1,1,1,1,1,1,1,1,1,1,1,1,1,1,1,1,1,1,1,1,1,1,1,1,1,1,1,1,0,0,0,0,0,1,1,1,1,1,1,1,1,1,1,1,1,1,1,1,1,1,1,1,1,1,1,1,1,1,1,1,1,1,1,1,0,0,0,0,1,1,1,1,1,0,1,1,1,1,1,1,1,0,1,1,1,1,1,1,1,1]",1,,,,,,stimuli/white_butterfly.png,stimuli/grey_butterfly.png,1,stimuli/green_flower.png,stimuli/red_flower.png,stimuli/yellow_flower.png,stimuli/blue_flower.png,left,stimuli/objects/sausage.jpg,0,4,stimuli/white_butterfly.png,1,10,2021-01-15_14h38.30.826,premce3DEU_ses-02_part-01_label-phase1,2020.1.2,Win32,60,,,,,down,0,0.838,0,31,31,31,1,,,,,,,,
,,,,,1,"[0,0,1,1,1,1,1,1,0,1,1,1,0,1,1,1,1,1,1,1,1,1,1,1,1,1,1,1,1,1,1,1,1,1,1,1,1,1,1,1,1,1,1,1,1,1,1,1,1,1,1,0,0,0,0,0,1,1,1,1,1,1,1,1,1,1,1,1,1,1,1,1,1,1,1,1,1,1,1,1,1,1,1,1,1,1,1,0,0,0,0,1,1,1,1,1,0,1,1,1,1,1,1,1,0,1,1,1,1,1,1,1,1]",1,,,,,,stimuli/grey_butterfly.png,stimuli/white_butterfly.png,2,stimuli/blue_flower.png,stimuli/green_flower.png,stimuli/yellow_flower.png,stimuli/red_flower.png,down,stimuli/objects/car.jpg,1,4,stimuli/white_butterfly.png,1,10,2021-01-15_14h38.30.826,premce3DEU_ses-02_part-01_label-phase1,2020.1.2,Win32,60,,,,,down,1,1.273,0,32,32,32,1,,,,,,,,
,,,,,1,"[0,0,1,1,1,1,1,1,0,1,1,1,0,1,1,1,1,1,1,1,1,1,1,1,1,1,1,1,1,1,1,1,1,1,1,1,1,1,1,1,1,1,1,1,1,1,1,1,1,1,1,0,0,0,0,0,1,1,1,1,1,1,1,1,1,1,1,1,1,1,1,1,1,1,1,1,1,1,1,1,1,1,1,1,1,1,1,0,0,0,0,1,1,1,1,1,0,1,1,1,1,1,1,1,0,1,1,1,1,1,1,1,1,1]",1,,,,,,stimuli/grey_butterfly.png,stimuli/white_butterfly.png,2,stimuli/yellow_flower.png,stimuli/green_flower.png,stimuli/blue_flower.png,stimuli/red_flower.png,left,stimuli/objects/dreamcatcher.jpg,1,4,stimuli/white_butterfly.png,1,10,2021-01-15_14h38.30.826,premce3DEU_ses-02_part-01_label-phase1,2020.1.2,Win32,60,,,,,left,1,0.707,0,33,33,33,1,,,,,,,,
,,,,,1,"[0,0,1,1,1,1,1,1,0,1,1,1,0,1,1,1,1,1,1,1,1,1,1,1,1,1,1,1,1,1,1,1,1,1,1,1,1,1,1,1,1,1,1,1,1,1,1,1,1,1,1,0,0,0,0,0,1,1,1,1,1,1,1,1,1,1,1,1,1,1,1,1,1,1,1,1,1,1,1,1,1,1,1,1,1,1,1,0,0,0,0,1,1,1,1,1,0,1,1,1,1,1,1,1,0,1,1,1,1,1,1,1,1,1,1]",1,,,,,,stimuli/white_butterfly.png,stimuli/grey_butterfly.png,2,stimuli/green_flower.png,stimuli/blue_flower.png,stimuli/yellow_flower.png,stimuli/red_flower.png,up,stimuli/objects/table01.jpg,1,4,stimuli/grey_butterfly.png,1,10,2021-01-15_14h38.30.826,premce3DEU_ses-02_part-01_label-phase1,2020.1.2,Win32,60,,,,,up,1,0.58,0,34,34,34,1,,,,,,,,
,,,,,1,"[0,0,1,1,1,1,1,1,0,1,1,1,0,1,1,1,1,1,1,1,1,1,1,1,1,1,1,1,1,1,1,1,1,1,1,1,1,1,1,1,1,1,1,1,1,1,1,1,1,1,1,0,0,0,0,0,1,1,1,1,1,1,1,1,1,1,1,1,1,1,1,1,1,1,1,1,1,1,1,1,1,1,1,1,1,1,1,0,0,0,0,1,1,1,1,1,0,1,1,1,1,1,1,1,0,1,1,1,1,1,1,1,1,1,1,1]",1,,,,,,stimuli/grey_butterfly.png,stimuli/white_butterfly.png,2,stimuli/yellow_flower.png,stimuli/red_flower.png,stimuli/green_flower.png,stimuli/blue_flower.png,left,stimuli/objects/jaguar.jpg,1,4,stimuli/white_butterfly.png,1,10,2021-01-15_14h38.30.826,premce3DEU_ses-02_part-01_label-phase1,2020.1.2,Win32,60,,,,,left,1,1.223,0,35,35,35,1,,,,,,,,
,,,,,1,"[0,0,1,1,1,1,1,1,0,1,1,1,0,1,1,1,1,1,1,1,1,1,1,1,1,1,1,1,1,1,1,1,1,1,1,1,1,1,1,1,1,1,1,1,1,1,1,1,1,1,1,0,0,0,0,0,1,1,1,1,1,1,1,1,1,1,1,1,1,1,1,1,1,1,1,1,1,1,1,1,1,1,1,1,1,1,1,0,0,0,0,1,1,1,1,1,0,1,1,1,1,1,1,1,0,1,1,1,1,1,1,1,1,1,1,1,1]",1,,,,,,stimuli/grey_butterfly.png,stimuli/white_butterfly.png,2,stimuli/yellow_flower.png,stimuli/blue_flower.png,stimuli/red_flower.png,stimuli/green_flower.png,left,stimuli/objects/butterfly3.jpg,1,4,stimuli/white_butterfly.png,1,10,2021-01-15_14h38.30.826,premce3DEU_ses-02_part-01_label-phase1,2020.1.2,Win32,60,,,,,left,1,0.601,0,36,36,36,1,,,,,,,,
,,,,,1,"[0,0,1,1,1,1,1,1,0,1,1,1,0,1,1,1,1,1,1,1,1,1,1,1,1,1,1,1,1,1,1,1,1,1,1,1,1,1,1,1,1,1,1,1,1,1,1,1,1,1,1,0,0,0,0,0,1,1,1,1,1,1,1,1,1,1,1,1,1,1,1,1,1,1,1,1,1,1,1,1,1,1,1,1,1,1,1,0,0,0,0,1,1,1,1,1,0,1,1,1,1,1,1,1,0,1,1,1,1,1,1,1,1,1,1,1,1,1]",1,,,,,,stimuli/white_butterfly.png,stimuli/grey_butterfly.png,2,stimuli/red_flower.png,stimuli/yellow_flower.png,stimuli/green_flower.png,stimuli/blue_flower.png,right,stimuli/objects/skihelmet01.jpg,1,4,stimuli/grey_butterfly.png,1,10,2021-01-15_14h38.30.826,premce3DEU_ses-02_part-01_label-phase1,2020.1.2,Win32,60,,,,,right,1,0.971,0,37,37,37,1,,,,,,,,
,,,,,1,"[0,0,1,1,1,1,1,1,0,1,1,1,0,1,1,1,1,1,1,1,1,1,1,1,1,1,1,1,1,1,1,1,1,1,1,1,1,1,1,1,1,1,1,1,1,1,1,1,1,1,1,0,0,0,0,0,1,1,1,1,1,1,1,1,1,1,1,1,1,1,1,1,1,1,1,1,1,1,1,1,1,1,1,1,1,1,1,0,0,0,0,1,1,1,1,1,0,1,1,1,1,1,1,1,0,1,1,1,1,1,1,1,1,1,1,1,1,1,1]",1,,,,,,stimuli/grey_butterfly.png,stimuli/white_butterfly.png,2,stimuli/blue_flower.png,stimuli/green_flower.png,stimuli/red_flower.png,stimuli/yellow_flower.png,right,stimuli/objects/bleachers.jpg,1,4,stimuli/white_butterfly.png,1,10,2021-01-15_14h38.30.826,premce3DEU_ses-02_part-01_label-phase1,2020.1.2,Win32,60,,,,,right,1,0.745,0,38,38,38,1,,,,,,,,
,,,,,1,"[0,0,1,1,1,1,1,1,0,1,1,1,0,1,1,1,1,1,1,1,1,1,1,1,1,1,1,1,1,1,1,1,1,1,1,1,1,1,1,1,1,1,1,1,1,1,1,1,1,1,1,0,0,0,0,0,1,1,1,1,1,1,1,1,1,1,1,1,1,1,1,1,1,1,1,1,1,1,1,1,1,1,1,1,1,1,1,0,0,0,0,1,1,1,1,1,0,1,1,1,1,1,1,1,0,1,1,1,1,1,1,1,1,1,1,1,1,1,1,1]",1,,,,,,stimuli/white_butterfly.png,stimuli/grey_butterfly.png,2,stimuli/green_flower.png,stimuli/yellow_flower.png,stimuli/red_flower.png,stimuli/blue_flower.png,right,stimuli/objects/jackrabbit.jpg,1,4,stimuli/grey_butterfly.png,1,10,2021-01-15_14h38.30.826,premce3DEU_ses-02_part-01_label-phase1,2020.1.2,Win32,60,,,,,right,1,0.755,0,39,39,39,1,,,,,,,,
,,,,,1,"[0,0,1,1,1,1,1,1,0,1,1,1,0,1,1,1,1,1,1,1,1,1,1,1,1,1,1,1,1,1,1,1,1,1,1,1,1,1,1,1,1,1,1,1,1,1,1,1,1,1,1,0,0,0,0,0,1,1,1,1,1,1,1,1,1,1,1,1,1,1,1,1,1,1,1,1,1,1,1,1,1,1,1,1,1,1,1,0,0,0,0,1,1,1,1,1,0,1,1,1,1,1,1,1,0,1,1,1,1,1,1,1,1,1,1,1,1,1,1,1,1]",1,,,,,,stimuli/grey_butterfly.png,stimuli/white_butterfly.png,1,stimuli/blue_flower.png,stimuli/yellow_flower.png,stimuli/green_flower.png,stimuli/red_flower.png,left,stimuli/objects/hulahoop.jpg,1,4,stimuli/grey_butterfly.png,1,10,2021-01-15_14h38.30.826,premce3DEU_ses-02_part-01_label-phase1,2020.1.2,Win32,60,,,,,left,1,0.915,0,40,40,40,1,,,,,,,,
,,,,,1,"[0,0,1,1,1,1,1,1,0,1,1,1,0,1,1,1,1,1,1,1,1,1,1,1,1,1,1,1,1,1,1,1,1,1,1,1,1,1,1,1,1,1,1,1,1,1,1,1,1,1,1,0,0,0,0,0,1,1,1,1,1,1,1,1,1,1,1,1,1,1,1,1,1,1,1,1,1,1,1,1,1,1,1,1,1,1,1,0,0,0,0,1,1,1,1,1,0,1,1,1,1,1,1,1,0,1,1,1,1,1,1,1,1,1,1,1,1,1,1,1,1,1]",1,,,,,,stimuli/white_butterfly.png,stimuli/grey_butterfly.png,2,stimuli/red_flower.png,stimuli/yellow_flower.png,stimuli/blue_flower.png,stimuli/green_flower.png,down,stimuli/objects/dogsled.jpg,1,4,stimuli/grey_butterfly.png,1,10,2021-01-15_14h38.30.826,premce3DEU_ses-02_part-01_label-phase1,2020.1.2,Win32,60,,,,,down,1,0.86,0,41,41,41,1,,,,,,,,
,,,,,,,,,,,,,,,,,,,,,,,,,,10,2021-01-15_14h38.30.826,premce3DEU_ses-02_part-01_label-phase1,2020.1.2,Win32,60,,,,,,,,,,,,,0,2,2,2,1,condition_files/tasklistC3.csv,,
,,,,,0,"[0,0,1,1,1,1,1,1,0,1,1,1,0,1,1,1,1,1,1,1,1,1,1,1,1,1,1,1,1,1,1,1,1,1,1,1,1,1,1,1,1,1,1,1,1,1,1,1,1,1,1,0,0,0,0,0,1,1,1,1,1,1,1,1,1,1,1,1,1,1,1,1,1,1,1,1,1,1,1,1,1,1,1,1,1,1,1,0,0,0,0,1,1,1,1,1,0,1,1,1,1,1,1,1,0,1,1,1,1,1,1,1,1,1,1,1,1,1,1,1,1,1,1]",1,,,,,,stimuli/grey_butterfly.png,stimuli/white_butterfly.png,1,stimuli/red_flower.png,stimuli/green_flower.png,stimuli/yellow_flower.png,stimuli/blue_flower.png,down,stimuli/objects/dalmatian.jpg,0,5,stimuli/grey_butterfly.png,0,10,2021-01-15_14h38.30.826,premce3DEU_ses-02_part-01_label-phase1,2020.1.2,Win32,60,,,,,right,0,0.901,0,0,0,0,1,,,,,,,,
,,,,,0,"[0,0,1,1,1,1,1,1,0,1,1,1,0,1,1,1,1,1,1,1,1,1,1,1,1,1,1,1,1,1,1,1,1,1,1,1,1,1,1,1,1,1,1,1,1,1,1,1,1,1,1,0,0,0,0,0,1,1,1,1,1,1,1,1,1,1,1,1,1,1,1,1,1,1,1,1,1,1,1,1,1,1,1,1,1,1,1,0,0,0,0,1,1,1,1,1,0,1,1,1,1,1,1,1,0,1,1,1,1,1,1,1,1,1,1,1,1,1,1,1,1,1,1]",0,,,,,,stimuli/white_butterfly.png,stimuli/grey_butterfly.png,1,stimuli/yellow_flower.png,stimuli/red_flower.png,stimuli/blue_flower.png,stimuli/green_flower.png,up,stimuli/objects/trombone.jpg,1,5,stimuli/white_butterfly.png,0,10,2021-01-15_14h38.30.826,premce3DEU_ses-02_part-01_label-phase1,2020.1.2,Win32,60,,,,,left,0,0.691,0,1,1,1,1,,,,,,,,
,,,,,0,"[0,0,1,1,1,1,1,1,0,1,1,1,0,1,1,1,1,1,1,1,1,1,1,1,1,1,1,1,1,1,1,1,1,1,1,1,1,1,1,1,1,1,1,1,1,1,1,1,1,1,1,0,0,0,0,0,1,1,1,1,1,1,1,1,1,1,1,1,1,1,1,1,1,1,1,1,1,1,1,1,1,1,1,1,1,1,1,0,0,0,0,1,1,1,1,1,0,1,1,1,1,1,1,1,0,1,1,1,1,1,1,1,1,1,1,1,1,1,1,1,1,1,1,0]",0,,,,,,stimuli/grey_butterfly.png,stimuli/white_butterfly.png,2,stimuli/green_flower.png,stimuli/yellow_flower.png,stimuli/red_flower.png,stimuli/blue_flower.png,down,stimuli/objects/trafficlight.jpg,1,5,stimuli/white_butterfly.png,0,10,2021-01-15_14h38.30.826,premce3DEU_ses-02_part-01_label-phase1,2020.1.2,Win32,60,,,,,up,0,0.574,0,2,2,2,1,,,,,,,,
,,,,,0,"[0,0,1,1,1,1,1,1,0,1,1,1,0,1,1,1,1,1,1,1,1,1,1,1,1,1,1,1,1,1,1,1,1,1,1,1,1,1,1,1,1,1,1,1,1,1,1,1,1,1,1,0,0,0,0,0,1,1,1,1,1,1,1,1,1,1,1,1,1,1,1,1,1,1,1,1,1,1,1,1,1,1,1,1,1,1,1,0,0,0,0,1,1,1,1,1,0,1,1,1,1,1,1,1,0,1,1,1,1,1,1,1,1,1,1,1,1,1,1,1,1,1,1,0,0]",0,,,,,,stimuli/grey_butterfly.png,stimuli/white_butterfly.png,2,stimuli/green_flower.png,stimuli/blue_flower.png,stimuli/red_flower.png,stimuli/yellow_flower.png,down,stimuli/objects/aquarium.jpg,1,5,stimuli/white_butterfly.png,0,10,2021-01-15_14h38.30.826,premce3DEU_ses-02_part-01_label-phase1,2020.1.2,Win32,60,,,,,right,0,0.716,0,3,3,3,1,,,,,,,,
,,,,,1,"[0,0,1,1,1,1,1,1,0,1,1,1,0,1,1,1,1,1,1,1,1,1,1,1,1,1,1,1,1,1,1,1,1,1,1,1,1,1,1,1,1,1,1,1,1,1,1,1,1,1,1,0,0,0,0,0,1,1,1,1,1,1,1,1,1,1,1,1,1,1,1,1,1,1,1,1,1,1,1,1,1,1,1,1,1,1,1,0,0,0,0,1,1,1,1,1,0,1,1,1,1,1,1,1,0,1,1,1,1,1,1,1,1,1,1,1,1,1,1,1,1,1,1,0,0,0]",1,,,,,,stimuli/white_butterfly.png,stimuli/grey_butterfly.png,1,stimuli/blue_flower.png,stimuli/green_flower.png,stimuli/yellow_flower.png,stimuli/red_flower.png,right,stimuli/objects/dolphin01.jpg,1,5,stimuli/white_butterfly.png,0,10,2021-01-15_14h38.30.826,premce3DEU_ses-02_part-01_label-phase1,2020.1.2,Win32,60,,,,,right,1,0.668,0,4,4,4,1,,,,,,,,
,,,,,1,"[0,0,1,1,1,1,1,1,0,1,1,1,0,1,1,1,1,1,1,1,1,1,1,1,1,1,1,1,1,1,1,1,1,1,1,1,1,1,1,1,1,1,1,1,1,1,1,1,1,1,1,0,0,0,0,0,1,1,1,1,1,1,1,1,1,1,1,1,1,1,1,1,1,1,1,1,1,1,1,1,1,1,1,1,1,1,1,0,0,0,0,1,1,1,1,1,0,1,1,1,1,1,1,1,0,1,1,1,1,1,1,1,1,1,1,1,1,1,1,1,1,1,1,0,0,0,1]",1,,,,,,stimuli/white_butterfly.png,stimuli/grey_butterfly.png,1,stimuli/green_flower.png,stimuli/blue_flower.png,stimuli/red_flower.png,stimuli/yellow_flower.png,down,stimuli/objects/battleaxe.jpg,1,5,stimuli/white_butterfly.png,0,10,2021-01-15_14h38.30.826,premce3DEU_ses-02_part-01_label-phase1,2020.1.2,Win32,60,,,,,down,1,0.891,0,5,5,5,1,,,,,,,,
,,,,,1,"[0,0,1,1,1,1,1,1,0,1,1,1,0,1,1,1,1,1,1,1,1,1,1,1,1,1,1,1,1,1,1,1,1,1,1,1,1,1,1,1,1,1,1,1,1,1,1,1,1,1,1,0,0,0,0,0,1,1,1,1,1,1,1,1,1,1,1,1,1,1,1,1,1,1,1,1,1,1,1,1,1,1,1,1,1,1,1,0,0,0,0,1,1,1,1,1,0,1,1,1,1,1,1,1,0,1,1,1,1,1,1,1,1,1,1,1,1,1,1,1,1,1,1,0,0,0,1,1]",1,,,,,,stimuli/white_butterfly.png,stimuli/grey_butterfly.png,1,stimuli/green_flower.png,stimuli/yellow_flower.png,stimuli/blue_flower.png,stimuli/red_flower.png,right,stimuli/objects/cookingpot.jpg,1,5,stimuli/white_butterfly.png,0,10,2021-01-15_14h38.30.826,premce3DEU_ses-02_part-01_label-phase1,2020.1.2,Win32,60,,,,,right,1,0.821,0,6,6,6,1,,,,,,,,
,,,,,0,"[0,0,1,1,1,1,1,1,0,1,1,1,0,1,1,1,1,1,1,1,1,1,1,1,1,1,1,1,1,1,1,1,1,1,1,1,1,1,1,1,1,1,1,1,1,1,1,1,1,1,1,0,0,0,0,0,1,1,1,1,1,1,1,1,1,1,1,1,1,1,1,1,1,1,1,1,1,1,1,1,1,1,1,1,1,1,1,0,0,0,0,1,1,1,1,1,0,1,1,1,1,1,1,1,0,1,1,1,1,1,1,1,1,1,1,1,1,1,1,1,1,1,1,0,0,0,1,1,1]",1,,,,,,stimuli/white_butterfly.png,stimuli/grey_butterfly.png,2,stimuli/green_flower.png,stimuli/blue_flower.png,stimuli/red_flower.png,stimuli/yellow_flower.png,down,stimuli/objects/vacuumcleaner01.jpg,0,5,stimuli/grey_butterfly.png,0,10,2021-01-15_14h38.30.826,premce3DEU_ses-02_part-01_label-phase1,2020.1.2,Win32,60,,,,,left,0,0.989,0,7,7,7,1,,,,,,,,
,,,,,1,"[0,0,1,1,1,1,1,1,0,1,1,1,0,1,1,1,1,1,1,1,1,1,1,1,1,1,1,1,1,1,1,1,1,1,1,1,1,1,1,1,1,1,1,1,1,1,1,1,1,1,1,0,0,0,0,0,1,1,1,1,1,1,1,1,1,1,1,1,1,1,1,1,1,1,1,1,1,1,1,1,1,1,1,1,1,1,1,0,0,0,0,1,1,1,1,1,0,1,1,1,1,1,1,1,0,1,1,1,1,1,1,1,1,1,1,1,1,1,1,1,1,1,1,0,0,0,1,1,1]",1,,,,,,stimuli/grey_butterfly.png,stimuli/white_butterfly.png,2,stimuli/blue_flower.png,stimuli/green_flower.png,stimuli/red_flower.png,stimuli/yellow_flower.png,down,stimuli/objects/star.jpg,1,5,stimuli/white_butterfly.png,0,10,2021-01-15_14h38.30.826,premce3DEU_ses-02_part-01_label-phase1,2020.1.2,Win32,60,,,,,down,1,0.657,0,8,8,8,1,,,,,,,,
,,,,,0,"[0,0,1,1,1,1,1,1,0,1,1,1,0,1,1,1,1,1,1,1,1,1,1,1,1,1,1,1,1,1,1,1,1,1,1,1,1,1,1,1,1,1,1,1,1,1,1,1,1,1,1,0,0,0,0,0,1,1,1,1,1,1,1,1,1,1,1,1,1,1,1,1,1,1,1,1,1,1,1,1,1,1,1,1,1,1,1,0,0,0,0,1,1,1,1,1,0,1,1,1,1,1,1,1,0,1,1,1,1,1,1,1,1,1,1,1,1,1,1,1,1,1,1,0,0,0,1,1,1,1]",0,,,,,,stimuli/white_butterfly.png,stimuli/grey_butterfly.png,2,stimuli/green_flower.png,stimuli/yellow_flower.png,stimuli/blue_flower.png,stimuli/red_flower.png,left,stimuli/objects/bacon.jpg,1,5,stimuli/grey_butterfly.png,0,10,2021-01-15_14h38.30.826,premce3DEU_ses-02_part-01_label-phase1,2020.1.2,Win32,60,,,,,right,0,0.703,0,9,9,9,1,,,,,,,,
,,,,,1,"[0,0,1,1,1,1,1,1,0,1,1,1,0,1,1,1,1,1,1,1,1,1,1,1,1,1,1,1,1,1,1,1,1,1,1,1,1,1,1,1,1,1,1,1,1,1,1,1,1,1,1,0,0,0,0,0,1,1,1,1,1,1,1,1,1,1,1,1,1,1,1,1,1,1,1,1,1,1,1,1,1,1,1,1,1,1,1,0,0,0,0,1,1,1,1,1,0,1,1,1,1,1,1,1,0,1,1,1,1,1,1,1,1,1,1,1,1,1,1,1,1,1,1,0,0,0,1,1,1,1,0]",1,,,,,,stimuli/white_butterfly.png,stimuli/grey_butterfly.png,2,stimuli/green_flower.png,stimuli/red_flower.png,stimuli/blue_flower.png,stimuli/yellow_flower.png,left,stimuli/objects/golfball.jpg,1,5,stimuli/grey_butterfly.png,0,10,2021-01-15_14h38.30.826,premce3DEU_ses-02_part-01_label-phase1,2020.1.2,Win32,60,,,,,left,1,1.396,0,10,10,10,1,,,,,,,,
,,,,,1,"[0,0,1,1,1,1,1,1,0,1,1,1,0,1,1,1,1,1,1,1,1,1,1,1,1,1,1,1,1,1,1,1,1,1,1,1,1,1,1,1,1,1,1,1,1,1,1,1,1,1,1,0,0,0,0,0,1,1,1,1,1,1,1,1,1,1,1,1,1,1,1,1,1,1,1,1,1,1,1,1,1,1,1,1,1,1,1,0,0,0,0,1,1,1,1,1,0,1,1,1,1,1,1,1,0,1,1,1,1,1,1,1,1,1,1,1,1,1,1,1,1,1,1,0,0,0,1,1,1,1,0,1]",1,,,,,,stimuli/white_butterfly.png,stimuli/grey_butterfly.png,2,stimuli/blue_flower.png,stimuli/green_flower.png,stimuli/red_flower.png,stimuli/yellow_flower.png,up,stimuli/objects/cuttlefish.jpg,1,5,stimuli/grey_butterfly.png,0,10,2021-01-15_14h38.30.826,premce3DEU_ses-02_part-01_label-phase1,2020.1.2,Win32,60,,,,,up,1,0.76,0,11,11,11,1,,,,,,,,
,,,,,0,"[0,0,1,1,1,1,1,1,0,1,1,1,0,1,1,1,1,1,1,1,1,1,1,1,1,1,1,1,1,1,1,1,1,1,1,1,1,1,1,1,1,1,1,1,1,1,1,1,1,1,1,0,0,0,0,0,1,1,1,1,1,1,1,1,1,1,1,1,1,1,1,1,1,1,1,1,1,1,1,1,1,1,1,1,1,1,1,0,0,0,0,1,1,1,1,1,0,1,1,1,1,1,1,1,0,1,1,1,1,1,1,1,1,1,1,1,1,1,1,1,1,1,1,0,0,0,1,1,1,1,0,1,1]",0,,,,,,stimuli/white_butterfly.png,stimuli/grey_butterfly.png,2,stimuli/red_flower.png,stimuli/yellow_flower.png,stimuli/green_flower.png,stimuli/blue_flower.png,down,stimuli/objects/tent.jpg,1,5,stimuli/grey_butterfly.png,0,10,2021-01-15_14h38.30.826,premce3DEU_ses-02_part-01_label-phase1,2020.1.2,Win32,60,,,,,,0,,0,12,12,12,1,,,,,,,,
,,,,,0,"[0,0,1,1,1,1,1,1,0,1,1,1,0,1,1,1,1,1,1,1,1,1,1,1,1,1,1,1,1,1,1,1,1,1,1,1,1,1,1,1,1,1,1,1,1,1,1,1,1,1,1,0,0,0,0,0,1,1,1,1,1,1,1,1,1,1,1,1,1,1,1,1,1,1,1,1,1,1,1,1,1,1,1,1,1,1,1,0,0,0,0,1,1,1,1,1,0,1,1,1,1,1,1,1,0,1,1,1,1,1,1,1,1,1,1,1,1,1,1,1,1,1,1,0,0,0,1,1,1,1,0,1,1,0]",0,,,,,,stimuli/grey_butterfly.png,stimuli/white_butterfly.png,2,stimuli/yellow_flower.png,stimuli/green_flower.png,stimuli/red_flower.png,stimuli/blue_flower.png,down,stimuli/objects/chipmunk.jpg,1,5,stimuli/white_butterfly.png,0,10,2021-01-15_14h38.30.826,premce3DEU_ses-02_part-01_label-phase1,2020.1.2,Win32,60,,,,,right,0,1.88,0,13,13,13,1,,,,,,,,
,,,,,1,"[0,0,1,1,1,1,1,1,0,1,1,1,0,1,1,1,1,1,1,1,1,1,1,1,1,1,1,1,1,1,1,1,1,1,1,1,1,1,1,1,1,1,1,1,1,1,1,1,1,1,1,0,0,0,0,0,1,1,1,1,1,1,1,1,1,1,1,1,1,1,1,1,1,1,1,1,1,1,1,1,1,1,1,1,1,1,1,0,0,0,0,1,1,1,1,1,0,1,1,1,1,1,1,1,0,1,1,1,1,1,1,1,1,1,1,1,1,1,1,1,1,1,1,0,0,0,1,1,1,1,0,1,1,0,0]",1,,,,,,stimuli/grey_butterfly.png,stimuli/white_butterfly.png,1,stimuli/blue_flower.png,stimuli/red_flower.png,stimuli/yellow_flower.png,stimuli/green_flower.png,right,stimuli/objects/artichoke01b.jpg,1,5,stimuli/grey_butterfly.png,0,10,2021-01-15_14h38.30.826,premce3DEU_ses-02_part-01_label-phase1,2020.1.2,Win32,60,,,,,right,1,1.113,0,14,14,14,1,,,,,,,,
,,,,,1,"[0,0,1,1,1,1,1,1,0,1,1,1,0,1,1,1,1,1,1,1,1,1,1,1,1,1,1,1,1,1,1,1,1,1,1,1,1,1,1,1,1,1,1,1,1,1,1,1,1,1,1,0,0,0,0,0,1,1,1,1,1,1,1,1,1,1,1,1,1,1,1,1,1,1,1,1,1,1,1,1,1,1,1,1,1,1,1,0,0,0,0,1,1,1,1,1,0,1,1,1,1,1,1,1,0,1,1,1,1,1,1,1,1,1,1,1,1,1,1,1,1,1,1,0,0,0,1,1,1,1,0,1,1,0,0,1]",1,,,,,,stimuli/grey_butterfly.png,stimuli/white_butterfly.png,1,stimuli/green_flower.png,stimuli/red_flower.png,stimuli/yellow_flower.png,stimuli/blue_flower.png,left,stimuli/objects/ipad02.jpg,1,5,stimuli/grey_butterfly.png,0,10,2021-01-15_14h38.30.826,premce3DEU_ses-02_part-01_label-phase1,2020.1.2,Win32,60,,,,,left,1,0.452,0,15,15,15,1,,,,,,,,
,,,,,1,"[0,0,1,1,1,1,1,1,0,1,1,1,0,1,1,1,1,1,1,1,1,1,1,1,1,1,1,1,1,1,1,1,1,1,1,1,1,1,1,1,1,1,1,1,1,1,1,1,1,1,1,0,0,0,0,0,1,1,1,1,1,1,1,1,1,1,1,1,1,1,1,1,1,1,1,1,1,1,1,1,1,1,1,1,1,1,1,0,0,0,0,1,1,1,1,1,0,1,1,1,1,1,1,1,0,1,1,1,1,1,1,1,1,1,1,1,1,1,1,1,1,1,1,0,0,0,1,1,1,1,0,1,1,0,0,1,1]",1,,,,,,stimuli/grey_butterfly.png,stimuli/white_butterfly.png,1,stimuli/blue_flower.png,stimuli/green_flower.png,stimuli/red_flower.png,stimuli/yellow_flower.png,up,stimuli/objects/cloud.jpg,1,5,stimuli/grey_butterfly.png,0,10,2021-01-15_14h38.30.826,premce3DEU_ses-02_part-01_label-phase1,2020.1.2,Win32,60,,,,,up,1,0.657,0,16,16,16,1,,,,,,,,
,,,,,0,"[0,0,1,1,1,1,1,1,0,1,1,1,0,1,1,1,1,1,1,1,1,1,1,1,1,1,1,1,1,1,1,1,1,1,1,1,1,1,1,1,1,1,1,1,1,1,1,1,1,1,1,0,0,0,0,0,1,1,1,1,1,1,1,1,1,1,1,1,1,1,1,1,1,1,1,1,1,1,1,1,1,1,1,1,1,1,1,0,0,0,0,1,1,1,1,1,0,1,1,1,1,1,1,1,0,1,1,1,1,1,1,1,1,1,1,1,1,1,1,1,1,1,1,0,0,0,1,1,1,1,0,1,1,0,0,1,1,1]",0,,,,,,stimuli/white_butterfly.png,stimuli/grey_butterfly.png,1,stimuli/green_flower.png,stimuli/red_flower.png,stimuli/yellow_flower.png,stimuli/blue_flower.png,up,stimuli/objects/butterfly4.jpg,1,5,stimuli/white_butterfly.png,0,10,2021-01-15_14h38.30.826,premce3DEU_ses-02_part-01_label-phase1,2020.1.2,Win32,60,,,,,right,0,1.856,0,17,17,17,1,,,,,,,,
,,,,,1,"[0,0,1,1,1,1,1,1,0,1,1,1,0,1,1,1,1,1,1,1,1,1,1,1,1,1,1,1,1,1,1,1,1,1,1,1,1,1,1,1,1,1,1,1,1,1,1,1,1,1,1,0,0,0,0,0,1,1,1,1,1,1,1,1,1,1,1,1,1,1,1,1,1,1,1,1,1,1,1,1,1,1,1,1,1,1,1,0,0,0,0,1,1,1,1,1,0,1,1,1,1,1,1,1,0,1,1,1,1,1,1,1,1,1,1,1,1,1,1,1,1,1,1,0,0,0,1,1,1,1,0,1,1,0,0,1,1,1,0]",1,,,,,,stimuli/white_butterfly.png,stimuli/grey_butterfly.png,2,stimuli/yellow_flower.png,stimuli/blue_flower.png,stimuli/red_flower.png,stimuli/green_flower.png,right,stimuli/objects/lionstatue.jpg,1,5,stimuli/grey_butterfly.png,0,10,2021-01-15_14h38.30.826,premce3DEU_ses-02_part-01_label-phase1,2020.1.2,Win32,60,,,,,right,1,1.441,0,18,18,18,1,,,,,,,,
,,,,,1,"[0,0,1,1,1,1,1,1,0,1,1,1,0,1,1,1,1,1,1,1,1,1,1,1,1,1,1,1,1,1,1,1,1,1,1,1,1,1,1,1,1,1,1,1,1,1,1,1,1,1,1,0,0,0,0,0,1,1,1,1,1,1,1,1,1,1,1,1,1,1,1,1,1,1,1,1,1,1,1,1,1,1,1,1,1,1,1,0,0,0,0,1,1,1,1,1,0,1,1,1,1,1,1,1,0,1,1,1,1,1,1,1,1,1,1,1,1,1,1,1,1,1,1,0,0,0,1,1,1,1,0,1,1,0,0,1,1,1,0,1]",1,,,,,,stimuli/white_butterfly.png,stimuli/grey_butterfly.png,1,stimuli/blue_flower.png,stimuli/red_flower.png,stimuli/green_flower.png,stimuli/yellow_flower.png,up,stimuli/objects/ironingboard01.jpg,1,5,stimuli/white_butterfly.png,0,10,2021-01-15_14h38.30.826,premce3DEU_ses-02_part-01_label-phase1,2020.1.2,Win32,60,,,,,up,1,0.61,0,19,19,19,1,,,,,,,,
,,,,,1,"[0,0,1,1,1,1,1,1,0,1,1,1,0,1,1,1,1,1,1,1,1,1,1,1,1,1,1,1,1,1,1,1,1,1,1,1,1,1,1,1,1,1,1,1,1,1,1,1,1,1,1,0,0,0,0,0,1,1,1,1,1,1,1,1,1,1,1,1,1,1,1,1,1,1,1,1,1,1,1,1,1,1,1,1,1,1,1,0,0,0,0,1,1,1,1,1,0,1,1,1,1,1,1,1,0,1,1,1,1,1,1,1,1,1,1,1,1,1,1,1,1,1,1,0,0,0,1,1,1,1,0,1,1,0,0,1,1,1,0,1,1]",1,,,,,,stimuli/grey_butterfly.png,stimuli/white_butterfly.png,1,stimuli/red_flower.png,stimuli/green_flower.png,stimuli/blue_flower.png,stimuli/yellow_flower.png,up,stimuli/objects/cork02.jpg,1,5,stimuli/grey_butterfly.png,0,10,2021-01-15_14h38.30.826,premce3DEU_ses-02_part-01_label-phase1,2020.1.2,Win32,60,,,,,up,1,1.237,0,20,20,20,1,,,,,,,,
,,,,,1,"[0,0,1,1,1,1,1,1,0,1,1,1,0,1,1,1,1,1,1,1,1,1,1,1,1,1,1,1,1,1,1,1,1,1,1,1,1,1,1,1,1,1,1,1,1,1,1,1,1,1,1,0,0,0,0,0,1,1,1,1,1,1,1,1,1,1,1,1,1,1,1,1,1,1,1,1,1,1,1,1,1,1,1,1,1,1,1,0,0,0,0,1,1,1,1,1,0,1,1,1,1,1,1,1,0,1,1,1,1,1,1,1,1,1,1,1,1,1,1,1,1,1,1,0,0,0,1,1,1,1,0,1,1,0,0,1,1,1,0,1,1,1]",1,,,,,,stimuli/grey_butterfly.png,stimuli/white_butterfly.png,2,stimuli/blue_flower.png,stimuli/green_flower.png,stimuli/yellow_flower.png,stimuli/red_flower.png,right,stimuli/objects/hockeystick.jpg,1,5,stimuli/white_butterfly.png,1,10,2021-01-15_14h38.30.826,premce3DEU_ses-02_part-01_label-phase1,2020.1.2,Win32,60,,,,,right,1,0.842,0,21,21,21,1,,,,,,,,
,,,,,1,"[0,0,1,1,1,1,1,1,0,1,1,1,0,1,1,1,1,1,1,1,1,1,1,1,1,1,1,1,1,1,1,1,1,1,1,1,1,1,1,1,1,1,1,1,1,1,1,1,1,1,1,0,0,0,0,0,1,1,1,1,1,1,1,1,1,1,1,1,1,1,1,1,1,1,1,1,1,1,1,1,1,1,1,1,1,1,1,0,0,0,0,1,1,1,1,1,0,1,1,1,1,1,1,1,0,1,1,1,1,1,1,1,1,1,1,1,1,1,1,1,1,1,1,0,0,0,1,1,1,1,0,1,1,0,0,1,1,1,0,1,1,1,1]",1,,,,,,stimuli/grey_butterfly.png,stimuli/white_butterfly.png,1,stimuli/red_flower.png,stimuli/blue_flower.png,stimuli/green_flower.png,stimuli/yellow_flower.png,down,stimuli/objects/asianelephant.jpg,1,5,stimuli/grey_butterfly.png,1,10,2021-01-15_14h38.30.826,premce3DEU_ses-02_part-01_label-phase1,2020.1.2,Win32,60,,,,,down,1,1.163,0,22,22,22,1,,,,,,,,
,,,,,1,"[0,0,1,1,1,1,1,1,0,1,1,1,0,1,1,1,1,1,1,1,1,1,1,1,1,1,1,1,1,1,1,1,1,1,1,1,1,1,1,1,1,1,1,1,1,1,1,1,1,1,1,0,0,0,0,0,1,1,1,1,1,1,1,1,1,1,1,1,1,1,1,1,1,1,1,1,1,1,1,1,1,1,1,1,1,1,1,0,0,0,0,1,1,1,1,1,0,1,1,1,1,1,1,1,0,1,1,1,1,1,1,1,1,1,1,1,1,1,1,1,1,1,1,0,0,0,1,1,1,1,0,1,1,0,0,1,1,1,0,1,1,1,1,1]",1,,,,,,stimuli/grey_butterfly.png,stimuli/white_butterfly.png,2,stimuli/yellow_flower.png,stimuli/red_flower.png,stimuli/blue_flower.png,stimuli/green_flower.png,up,stimuli/objects/jeans01.jpg,1,5,stimuli/white_butterfly.png,1,10,2021-01-15_14h38.30.826,premce3DEU_ses-02_part-01_label-phase1,2020.1.2,Win32,60,,,,,up,1,0.69,0,23,23,23,1,,,,,,,,
,,,,,0,"[0,0,1,1,1,1,1,1,0,1,1,1,0,1,1,1,1,1,1,1,1,1,1,1,1,1,1,1,1,1,1,1,1,1,1,1,1,1,1,1,1,1,1,1,1,1,1,1,1,1,1,0,0,0,0,0,1,1,1,1,1,1,1,1,1,1,1,1,1,1,1,1,1,1,1,1,1,1,1,1,1,1,1,1,1,1,1,0,0,0,0,1,1,1,1,1,0,1,1,1,1,1,1,1,0,1,1,1,1,1,1,1,1,1,1,1,1,1,1,1,1,1,1,0,0,0,1,1,1,1,0,1,1,0,0,1,1,1,0,1,1,1,1,1,1]",1,,,,,,stimuli/white_butterfly.png,stimuli/grey_butterfly.png,2,stimuli/blue_flower.png,stimuli/green_flower.png,stimuli/yellow_flower.png,stimuli/red_flower.png,left,stimuli/objects/gps.jpg,0,5,stimuli/grey_butterfly.png,1,10,2021-01-15_14h38.30.826,premce3DEU_ses-02_part-01_label-phase1,2020.1.2,Win32,60,,,,,up,0,1.223,0,24,24,24,1,,,,,,,,
,,,,,1,"[0,0,1,1,1,1,1,1,0,1,1,1,0,1,1,1,1,1,1,1,1,1,1,1,1,1,1,1,1,1,1,1,1,1,1,1,1,1,1,1,1,1,1,1,1,1,1,1,1,1,1,0,0,0,0,0,1,1,1,1,1,1,1,1,1,1,1,1,1,1,1,1,1,1,1,1,1,1,1,1,1,1,1,1,1,1,1,0,0,0,0,1,1,1,1,1,0,1,1,1,1,1,1,1,0,1,1,1,1,1,1,1,1,1,1,1,1,1,1,1,1,1,1,0,0,0,1,1,1,1,0,1,1,0,0,1,1,1,0,1,1,1,1,1,1]",1,,,,,,stimuli/white_butterfly.png,stimuli/grey_butterfly.png,2,stimuli/red_flower.png,stimuli/green_flower.png,stimuli/yellow_flower.png,stimuli/blue_flower.png,up,stimuli/objects/hockeypuck.jpg,1,5,stimuli/grey_butterfly.png,1,10,2021-01-15_14h38.30.826,premce3DEU_ses-02_part-01_label-phase1,2020.1.2,Win32,60,,,,,up,1,1.179,0,25,25,25,1,,,,,,,,
,,,,,0,"[0,0,1,1,1,1,1,1,0,1,1,1,0,1,1,1,1,1,1,1,1,1,1,1,1,1,1,1,1,1,1,1,1,1,1,1,1,1,1,1,1,1,1,1,1,1,1,1,1,1,1,0,0,0,0,0,1,1,1,1,1,1,1,1,1,1,1,1,1,1,1,1,1,1,1,1,1,1,1,1,1,1,1,1,1,1,1,0,0,0,0,1,1,1,1,1,0,1,1,1,1,1,1,1,0,1,1,1,1,1,1,1,1,1,1,1,1,1,1,1,1,1,1,0,0,0,1,1,1,1,0,1,1,0,0,1,1,1,0,1,1,1,1,1,1,1]",0,,,,,,stimuli/grey_butterfly.png,stimuli/white_butterfly.png,1,stimuli/blue_flower.png,stimuli/red_flower.png,stimuli/green_flower.png,stimuli/yellow_flower.png,down,stimuli/objects/lantern03.jpg,1,5,stimuli/grey_butterfly.png,1,10,2021-01-15_14h38.30.826,premce3DEU_ses-02_part-01_label-phase1,2020.1.2,Win32,60,,,,,up,0,0.664,0,26,26,26,1,,,,,,,,
,,,,,0,"[0,0,1,1,1,1,1,1,0,1,1,1,0,1,1,1,1,1,1,1,1,1,1,1,1,1,1,1,1,1,1,1,1,1,1,1,1,1,1,1,1,1,1,1,1,1,1,1,1,1,1,0,0,0,0,0,1,1,1,1,1,1,1,1,1,1,1,1,1,1,1,1,1,1,1,1,1,1,1,1,1,1,1,1,1,1,1,0,0,0,0,1,1,1,1,1,0,1,1,1,1,1,1,1,0,1,1,1,1,1,1,1,1,1,1,1,1,1,1,1,1,1,1,0,0,0,1,1,1,1,0,1,1,0,0,1,1,1,0,1,1,1,1,1,1,1,0]",0,,,,,,stimuli/white_butterfly.png,stimuli/grey_butterfly.png,2,stimuli/blue_flower.png,stimuli/red_flower.png,stimuli/green_flower.png,stimuli/yellow_flower.png,down,stimuli/objects/monarchbutterfly.jpg,1,5,stimuli/grey_butterfly.png,1,10,2021-01-15_14h38.30.826,premce3DEU_ses-02_part-01_label-phase1,2020.1.2,Win32,60,,,,,right,0,1.722,0,27,27,27,1,,,,,,,,
,,,,,1,"[0,0,1,1,1,1,1,1,0,1,1,1,0,1,1,1,1,1,1,1,1,1,1,1,1,1,1,1,1,1,1,1,1,1,1,1,1,1,1,1,1,1,1,1,1,1,1,1,1,1,1,0,0,0,0,0,1,1,1,1,1,1,1,1,1,1,1,1,1,1,1,1,1,1,1,1,1,1,1,1,1,1,1,1,1,1,1,0,0,0,0,1,1,1,1,1,0,1,1,1,1,1,1,1,0,1,1,1,1,1,1,1,1,1,1,1,1,1,1,1,1,1,1,0,0,0,1,1,1,1,0,1,1,0,0,1,1,1,0,1,1,1,1,1,1,1,0,0]",1,,,,,,stimuli/grey_butterfly.png,stimuli/white_butterfly.png,1,stimuli/green_flower.png,stimuli/blue_flower.png,stimuli/red_flower.png,stimuli/yellow_flower.png,left,stimuli/objects/tulip02.jpg,1,5,stimuli/grey_butterfly.png,1,10,2021-01-15_14h38.30.826,premce3DEU_ses-02_part-01_label-phase1,2020.1.2,Win32,60,,,,,left,1,2.08,0,28,28,28,1,,,,,,,,
,,,,,1,"[0,0,1,1,1,1,1,1,0,1,1,1,0,1,1,1,1,1,1,1,1,1,1,1,1,1,1,1,1,1,1,1,1,1,1,1,1,1,1,1,1,1,1,1,1,1,1,1,1,1,1,0,0,0,0,0,1,1,1,1,1,1,1,1,1,1,1,1,1,1,1,1,1,1,1,1,1,1,1,1,1,1,1,1,1,1,1,0,0,0,0,1,1,1,1,1,0,1,1,1,1,1,1,1,0,1,1,1,1,1,1,1,1,1,1,1,1,1,1,1,1,1,1,0,0,0,1,1,1,1,0,1,1,0,0,1,1,1,0,1,1,1,1,1,1,1,0,0,1]",1,,,,,,stimuli/white_butterfly.png,stimuli/grey_butterfly.png,1,stimuli/red_flower.png,stimuli/yellow_flower.png,stimuli/blue_flower.png,stimuli/green_flower.png,left,stimuli/objects/jellyfish.jpg,1,5,stimuli/white_butterfly.png,1,10,2021-01-15_14h38.30.826,premce3DEU_ses-02_part-01_label-phase1,2020.1.2,Win32,60,,,,,left,1,0.706,0,29,29,29,1,,,,,,,,
,,,,,0,"[0,0,1,1,1,1,1,1,0,1,1,1,0,1,1,1,1,1,1,1,1,1,1,1,1,1,1,1,1,1,1,1,1,1,1,1,1,1,1,1,1,1,1,1,1,1,1,1,1,1,1,0,0,0,0,0,1,1,1,1,1,1,1,1,1,1,1,1,1,1,1,1,1,1,1,1,1,1,1,1,1,1,1,1,1,1,1,0,0,0,0,1,1,1,1,1,0,1,1,1,1,1,1,1,0,1,1,1,1,1,1,1,1,1,1,1,1,1,1,1,1,1,1,0,0,0,1,1,1,1,0,1,1,0,0,1,1,1,0,1,1,1,1,1,1,1,0,0,1,1]",1,,,,,,stimuli/grey_butterfly.png,stimuli/white_butterfly.png,2,stimuli/yellow_flower.png,stimuli/blue_flower.png,stimuli/green_flower.png,stimuli/red_flower.png,left,stimuli/objects/cremebrulee.jpg,0,5,stimuli/white_butterfly.png,1,10,2021-01-15_14h38.30.826,premce3DEU_ses-02_part-01_label-phase1,2020.1.2,Win32,60,,,,,down,0,1.668,0,30,30,30,1,,,,,,,,
,,,,,1,"[0,0,1,1,1,1,1,1,0,1,1,1,0,1,1,1,1,1,1,1,1,1,1,1,1,1,1,1,1,1,1,1,1,1,1,1,1,1,1,1,1,1,1,1,1,1,1,1,1,1,1,0,0,0,0,0,1,1,1,1,1,1,1,1,1,1,1,1,1,1,1,1,1,1,1,1,1,1,1,1,1,1,1,1,1,1,1,0,0,0,0,1,1,1,1,1,0,1,1,1,1,1,1,1,0,1,1,1,1,1,1,1,1,1,1,1,1,1,1,1,1,1,1,0,0,0,1,1,1,1,0,1,1,0,0,1,1,1,0,1,1,1,1,1,1,1,0,0,1,1]",1,,,,,,stimuli/white_butterfly.png,stimuli/grey_butterfly.png,2,stimuli/yellow_flower.png,stimuli/green_flower.png,stimuli/blue_flower.png,stimuli/red_flower.png,up,stimuli/objects/callbell.jpg,1,5,stimuli/grey_butterfly.png,1,10,2021-01-15_14h38.30.826,premce3DEU_ses-02_part-01_label-phase1,2020.1.2,Win32,60,,,,,up,1,0.718,0,31,31,31,1,,,,,,,,
,,,,,1,"[0,0,1,1,1,1,1,1,0,1,1,1,0,1,1,1,1,1,1,1,1,1,1,1,1,1,1,1,1,1,1,1,1,1,1,1,1,1,1,1,1,1,1,1,1,1,1,1,1,1,1,0,0,0,0,0,1,1,1,1,1,1,1,1,1,1,1,1,1,1,1,1,1,1,1,1,1,1,1,1,1,1,1,1,1,1,1,0,0,0,0,1,1,1,1,1,0,1,1,1,1,1,1,1,0,1,1,1,1,1,1,1,1,1,1,1,1,1,1,1,1,1,1,0,0,0,1,1,1,1,0,1,1,0,0,1,1,1,0,1,1,1,1,1,1,1,0,0,1,1,1]",1,,,,,,stimuli/grey_butterfly.png,stimuli/white_butterfly.png,2,stimuli/green_flower.png,stimuli/red_flower.png,stimuli/blue_flower.png,stimuli/yellow_flower.png,up,stimuli/objects/basketball01.jpg,1,5,stimuli/white_butterfly.png,1,10,2021-01-15_14h38.30.826,premce3DEU_ses-02_part-01_label-phase1,2020.1.2,Win32,60,,,,,up,1,0.642,0,32,32,32,1,,,,,,,,
,,,,,1,"[0,0,1,1,1,1,1,1,0,1,1,1,0,1,1,1,1,1,1,1,1,1,1,1,1,1,1,1,1,1,1,1,1,1,1,1,1,1,1,1,1,1,1,1,1,1,1,1,1,1,1,0,0,0,0,0,1,1,1,1,1,1,1,1,1,1,1,1,1,1,1,1,1,1,1,1,1,1,1,1,1,1,1,1,1,1,1,0,0,0,0,1,1,1,1,1,0,1,1,1,1,1,1,1,0,1,1,1,1,1,1,1,1,1,1,1,1,1,1,1,1,1,1,0,0,0,1,1,1,1,0,1,1,0,0,1,1,1,0,1,1,1,1,1,1,1,0,0,1,1,1,1]",1,,,,,,stimuli/grey_butterfly.png,stimuli/white_butterfly.png,1,stimuli/red_flower.png,stimuli/yellow_flower.png,stimuli/blue_flower.png,stimuli/green_flower.png,right,stimuli/objects/jokercard.jpg,1,5,stimuli/grey_butterfly.png,1,10,2021-01-15_14h38.30.826,premce3DEU_ses-02_part-01_label-phase1,2020.1.2,Win32,60,,,,,right,1,1.3,0,33,33,33,1,,,,,,,,
,,,,,1,"[0,0,1,1,1,1,1,1,0,1,1,1,0,1,1,1,1,1,1,1,1,1,1,1,1,1,1,1,1,1,1,1,1,1,1,1,1,1,1,1,1,1,1,1,1,1,1,1,1,1,1,0,0,0,0,0,1,1,1,1,1,1,1,1,1,1,1,1,1,1,1,1,1,1,1,1,1,1,1,1,1,1,1,1,1,1,1,0,0,0,0,1,1,1,1,1,0,1,1,1,1,1,1,1,0,1,1,1,1,1,1,1,1,1,1,1,1,1,1,1,1,1,1,0,0,0,1,1,1,1,0,1,1,0,0,1,1,1,0,1,1,1,1,1,1,1,0,0,1,1,1,1,1]",1,,,,,,stimuli/grey_butterfly.png,stimuli/white_butterfly.png,2,stimuli/red_flower.png,stimuli/green_flower.png,stimuli/blue_flower.png,stimuli/yellow_flower.png,left,stimuli/objects/soccerball.jpg,1,5,stimuli/white_butterfly.png,1,10,2021-01-15_14h38.30.826,premce3DEU_ses-02_part-01_label-phase1,2020.1.2,Win32,60,,,,,left,1,1.764,0,34,34,34,1,,,,,,,,
,,,,,1,"[0,0,1,1,1,1,1,1,0,1,1,1,0,1,1,1,1,1,1,1,1,1,1,1,1,1,1,1,1,1,1,1,1,1,1,1,1,1,1,1,1,1,1,1,1,1,1,1,1,1,1,0,0,0,0,0,1,1,1,1,1,1,1,1,1,1,1,1,1,1,1,1,1,1,1,1,1,1,1,1,1,1,1,1,1,1,1,0,0,0,0,1,1,1,1,1,0,1,1,1,1,1,1,1,0,1,1,1,1,1,1,1,1,1,1,1,1,1,1,1,1,1,1,0,0,0,1,1,1,1,0,1,1,0,0,1,1,1,0,1,1,1,1,1,1,1,0,0,1,1,1,1,1,1]",1,,,,,,stimuli/grey_butterfly.png,stimuli/white_butterfly.png,2,stimuli/blue_flower.png,stimuli/red_flower.png,stimuli/yellow_flower.png,stimuli/green_flower.png,up,stimuli/objects/butterfly2.jpg,1,5,stimuli/white_butterfly.png,1,10,2021-01-15_14h38.30.826,premce3DEU_ses-02_part-01_label-phase1,2020.1.2,Win32,60,,,,,up,1,1.779,0,35,35,35,1,,,,,,,,
,,,,,1,"[0,0,1,1,1,1,1,1,0,1,1,1,0,1,1,1,1,1,1,1,1,1,1,1,1,1,1,1,1,1,1,1,1,1,1,1,1,1,1,1,1,1,1,1,1,1,1,1,1,1,1,0,0,0,0,0,1,1,1,1,1,1,1,1,1,1,1,1,1,1,1,1,1,1,1,1,1,1,1,1,1,1,1,1,1,1,1,0,0,0,0,1,1,1,1,1,0,1,1,1,1,1,1,1,0,1,1,1,1,1,1,1,1,1,1,1,1,1,1,1,1,1,1,0,0,0,1,1,1,1,0,1,1,0,0,1,1,1,0,1,1,1,1,1,1,1,0,0,1,1,1,1,1,1,1]",1,,,,,,stimuli/white_butterfly.png,stimuli/grey_butterfly.png,2,stimuli/blue_flower.png,stimuli/yellow_flower.png,stimuli/green_flower.png,stimuli/red_flower.png,down,stimuli/objects/eyepatch.jpg,1,5,stimuli/grey_butterfly.png,1,10,2021-01-15_14h38.30.826,premce3DEU_ses-02_part-01_label-phase1,2020.1.2,Win32,60,,,,,down,1,0.751,0,36,36,36,1,,,,,,,,
,,,,,1,"[0,0,1,1,1,1,1,1,0,1,1,1,0,1,1,1,1,1,1,1,1,1,1,1,1,1,1,1,1,1,1,1,1,1,1,1,1,1,1,1,1,1,1,1,1,1,1,1,1,1,1,0,0,0,0,0,1,1,1,1,1,1,1,1,1,1,1,1,1,1,1,1,1,1,1,1,1,1,1,1,1,1,1,1,1,1,1,0,0,0,0,1,1,1,1,1,0,1,1,1,1,1,1,1,0,1,1,1,1,1,1,1,1,1,1,1,1,1,1,1,1,1,1,0,0,0,1,1,1,1,0,1,1,0,0,1,1,1,0,1,1,1,1,1,1,1,0,0,1,1,1,1,1,1,1,1]",1,,,,,,stimuli/grey_butterfly.png,stimuli/white_butterfly.png,2,stimuli/red_flower.png,stimuli/yellow_flower.png,stimuli/blue_flower.png,stimuli/green_flower.png,left,stimuli/objects/cashregister01.jpg,1,5,stimuli/white_butterfly.png,1,10,2021-01-15_14h38.30.826,premce3DEU_ses-02_part-01_label-phase1,2020.1.2,Win32,60,,,,,left,1,0.865,0,37,37,37,1,,,,,,,,
,,,,,0,"[0,0,1,1,1,1,1,1,0,1,1,1,0,1,1,1,1,1,1,1,1,1,1,1,1,1,1,1,1,1,1,1,1,1,1,1,1,1,1,1,1,1,1,1,1,1,1,1,1,1,1,0,0,0,0,0,1,1,1,1,1,1,1,1,1,1,1,1,1,1,1,1,1,1,1,1,1,1,1,1,1,1,1,1,1,1,1,0,0,0,0,1,1,1,1,1,0,1,1,1,1,1,1,1,0,1,1,1,1,1,1,1,1,1,1,1,1,1,1,1,1,1,1,0,0,0,1,1,1,1,0,1,1,0,0,1,1,1,0,1,1,1,1,1,1,1,0,0,1,1,1,1,1,1,1,1,1]",1,,,,,,stimuli/white_butterfly.png,stimuli/grey_butterfly.png,1,stimuli/blue_flower.png,stimuli/green_flower.png,stimuli/red_flower.png,stimuli/yellow_flower.png,up,stimuli/objects/jellybean.jpg,0,5,stimuli/white_butterfly.png,1,10,2021-01-15_14h38.30.826,premce3DEU_ses-02_part-01_label-phase1,2020.1.2,Win32,60,,,,,down,0,1.072,0,38,38,38,1,,,,,,,,
,,,,,1,"[0,0,1,1,1,1,1,1,0,1,1,1,0,1,1,1,1,1,1,1,1,1,1,1,1,1,1,1,1,1,1,1,1,1,1,1,1,1,1,1,1,1,1,1,1,1,1,1,1,1,1,0,0,0,0,0,1,1,1,1,1,1,1,1,1,1,1,1,1,1,1,1,1,1,1,1,1,1,1,1,1,1,1,1,1,1,1,0,0,0,0,1,1,1,1,1,0,1,1,1,1,1,1,1,0,1,1,1,1,1,1,1,1,1,1,1,1,1,1,1,1,1,1,0,0,0,1,1,1,1,0,1,1,0,0,1,1,1,0,1,1,1,1,1,1,1,0,0,1,1,1,1,1,1,1,1,1]",1,,,,,,stimuli/grey_butterfly.png,stimuli/white_butterfly.png,2,stimuli/blue_flower.png,stimuli/yellow_flower.png,stimuli/green_flower.png,stimuli/red_flower.png,right,stimuli/objects/balcony02.jpg,1,5,stimuli/white_butterfly.png,1,10,2021-01-15_14h38.30.826,premce3DEU_ses-02_part-01_label-phase1,2020.1.2,Win32,60,,,,,right,1,0.732,0,39,39,39,1,,,,,,,,
,,,,,1,"[0,0,1,1,1,1,1,1,0,1,1,1,0,1,1,1,1,1,1,1,1,1,1,1,1,1,1,1,1,1,1,1,1,1,1,1,1,1,1,1,1,1,1,1,1,1,1,1,1,1,1,0,0,0,0,0,1,1,1,1,1,1,1,1,1,1,1,1,1,1,1,1,1,1,1,1,1,1,1,1,1,1,1,1,1,1,1,0,0,0,0,1,1,1,1,1,0,1,1,1,1,1,1,1,0,1,1,1,1,1,1,1,1,1,1,1,1,1,1,1,1,1,1,0,0,0,1,1,1,1,0,1,1,0,0,1,1,1,0,1,1,1,1,1,1,1,0,0,1,1,1,1,1,1,1,1,1,1]",1,,,,,,stimuli/white_butterfly.png,stimuli/grey_butterfly.png,2,stimuli/green_flower.png,stimuli/yellow_flower.png,stimuli/red_flower.png,stimuli/blue_flower.png,left,stimuli/objects/fingerprint.jpg,1,5,stimuli/grey_butterfly.png,1,10,2021-01-15_14h38.30.826,premce3DEU_ses-02_part-01_label-phase1,2020.1.2,Win32,60,,,,,left,1,0.675,0,40,40,40,1,,,,,,,,
,,,,,0,"[0,0,1,1,1,1,1,1,0,1,1,1,0,1,1,1,1,1,1,1,1,1,1,1,1,1,1,1,1,1,1,1,1,1,1,1,1,1,1,1,1,1,1,1,1,1,1,1,1,1,1,0,0,0,0,0,1,1,1,1,1,1,1,1,1,1,1,1,1,1,1,1,1,1,1,1,1,1,1,1,1,1,1,1,1,1,1,0,0,0,0,1,1,1,1,1,0,1,1,1,1,1,1,1,0,1,1,1,1,1,1,1,1,1,1,1,1,1,1,1,1,1,1,0,0,0,1,1,1,1,0,1,1,0,0,1,1,1,0,1,1,1,1,1,1,1,0,0,1,1,1,1,1,1,1,1,1,1,1]",1,,,,,,stimuli/grey_butterfly.png,stimuli/white_butterfly.png,2,stimuli/yellow_flower.png,stimuli/red_flower.png,stimuli/green_flower.png,stimuli/blue_flower.png,right,stimuli/objects/bolt01a.jpg,0,5,stimuli/white_butterfly.png,1,10,2021-01-15_14h38.30.826,premce3DEU_ses-02_part-01_label-phase1,2020.1.2,Win32,60,,,,,up,0,0.609,0,41,41,41,1,,,,,,,,
,,,,,,,,,,,,,,,,,,,,,,,,,,10,2021-01-15_14h38.30.826,premce3DEU_ses-02_part-01_label-phase1,2020.1.2,Win32,60,,,,,,,,,,,,,,,,,,,space,13.164
