myownaccuracy,respcorrs,minNrPractice,considerNrTrials,Instruction_loop.thisRepN,Instruction_loop.thisTrialN,Instruction_loop.thisN,Instruction_loop.thisIndex,Instruction_loop.ran,slides,participant,date,expName,psychopyVersion,OS,frameRate,pract_resp.keys,pract_resp.corr,pract_resp.rt,myownaccuracyCORR,pract_loop.thisRepN,pract_loop.thisTrialN,pract_loop.thisN,pract_loop.thisIndex,pract_loop.ran,trialN,first_butterfly,second_butterfly,Cue,left_flower,top_flower,bottom_flower,right_flower,corr_ans,obj_file,trial_cond,switch_cond,cuedButter,repeat_pract.thisRepN,repeat_pract.thisTrialN,repeat_pract.thisN,repeat_pract.thisIndex,repeat_pract.ran,task_resp.keys,task_resp.corr,task_resp.rt,task_loop.thisRepN,task_loop.thisTrialN,task_loop.thisN,task_loop.thisIndex,task_loop.ran,trial_type,rep_resp_2.keys,rep_resp_2.rt,repeat_task.thisRepN,repeat_task.thisTrialN,repeat_task.thisN,repeat_task.thisIndex,repeat_task.ran,task_resp_2.keys,task_resp_2.corr,task_resp_2.rt,cont_check.thisRepN,cont_check.thisTrialN,cont_check.thisN,cont_check.thisIndex,cont_check.ran,butterfly,finalmess_resp_3.keys,finalmess_resp_3.rt
[],[],10,10,0,0,0,0,1,stimuli/slide1.png,11,2021-01-18_17h54.49.035,premce3DEU_ses-01_part-01_label-phase1,2020.1.2,Win32,60,,,,,,,,,,,,,,,,,,,,,,,,,,,,,,,,,,,,,,,,,,,,,,,,,,,,,,
,,,,0,1,1,1,1,stimuli/slide2.png,11,2021-01-18_17h54.49.035,premce3DEU_ses-01_part-01_label-phase1,2020.1.2,Win32,60,,,,,,,,,,,,,,,,,,,,,,,,,,,,,,,,,,,,,,,,,,,,,,,,,,,,,,
,,,,0,2,2,2,1,stimuli/slide3.png,11,2021-01-18_17h54.49.035,premce3DEU_ses-01_part-01_label-phase1,2020.1.2,Win32,60,,,,,,,,,,,,,,,,,,,,,,,,,,,,,,,,,,,,,,,,,,,,,,,,,,,,,,
,,,,0,3,3,3,1,stimuli/slide4.png,11,2021-01-18_17h54.49.035,premce3DEU_ses-01_part-01_label-phase1,2020.1.2,Win32,60,,,,,,,,,,,,,,,,,,,,,,,,,,,,,,,,,,,,,,,,,,,,,,,,,,,,,,
,,,,0,4,4,4,1,stimuli/slide5.png,11,2021-01-18_17h54.49.035,premce3DEU_ses-01_part-01_label-phase1,2020.1.2,Win32,60,,,,,,,,,,,,,,,,,,,,,,,,,,,,,,,,,,,,,,,,,,,,,,,,,,,,,,
,,,,0,5,5,5,1,stimuli/slide6.png,11,2021-01-18_17h54.49.035,premce3DEU_ses-01_part-01_label-phase1,2020.1.2,Win32,60,,,,,,,,,,,,,,,,,,,,,,,,,,,,,,,,,,,,,,,,,,,,,,,,,,,,,,
1,[],,,,,,,,,11,2021-01-18_17h54.49.035,premce3DEU_ses-01_part-01_label-phase1,2020.1.2,Win32,60,right,1,1.04,1,0,0,0,0,1,1,stimuli/yellow_butterfly.png,stimuli/red_butterfly.png,1,stimuli/white_flower.png,stimuli/grey_flower.png,stimuli/acqua_flower.png,stimuli/brown_flower.png,right,stimuli/objects/smokedetector02.jpg,1,0,stimuli/yellow_butterfly.png,,,,,,,,,,,,,,,,,,,,,,,,,,,,,,,,
0,[1],,,,,,,,,11,2021-01-18_17h54.49.035,premce3DEU_ses-01_part-01_label-phase1,2020.1.2,Win32,60,right,0,1.467,1,0,1,1,1,1,2,stimuli/red_butterfly.png,stimuli/yellow_butterfly.png,2,stimuli/acqua_flower.png,stimuli/brown_flower.png,stimuli/grey_flower.png,stimuli/white_flower.png,down,stimuli/objects/suitofarmor.jpg,0,0,stimuli/yellow_butterfly.png,,,,,,,,,,,,,,,,,,,,,,,,,,,,,,,,
0,[1],,,,,,,,,11,2021-01-18_17h54.49.035,premce3DEU_ses-01_part-01_label-phase1,2020.1.2,Win32,60,right,0,0.678,0,0,2,2,2,1,3,stimuli/yellow_butterfly.png,stimuli/red_butterfly.png,2,stimuli/acqua_flower.png,stimuli/white_flower.png,stimuli/grey_flower.png,stimuli/brown_flower.png,left,stimuli/objects/christmaswreath.jpg,1,0,stimuli/red_butterfly.png,,,,,,,,,,,,,,,,,,,,,,,,,,,,,,,,
1,"[1,0]",,,,,,,,,11,2021-01-18_17h54.49.035,premce3DEU_ses-01_part-01_label-phase1,2020.1.2,Win32,60,up,1,1.606,1,0,3,3,3,1,4,stimuli/red_butterfly.png,stimuli/yellow_butterfly.png,1,stimuli/brown_flower.png,stimuli/acqua_flower.png,stimuli/grey_flower.png,stimuli/white_flower.png,up,stimuli/objects/rhinoceros02.jpg,1,0,stimuli/red_butterfly.png,,,,,,,,,,,,,,,,,,,,,,,,,,,,,,,,
1,"[1,0,1]",,,,,,,,,11,2021-01-18_17h54.49.035,premce3DEU_ses-01_part-01_label-phase1,2020.1.2,Win32,60,left,1,0.991,1,0,4,4,4,1,5,stimuli/red_butterfly.png,stimuli/yellow_butterfly.png,1,stimuli/acqua_flower.png,stimuli/brown_flower.png,stimuli/grey_flower.png,stimuli/white_flower.png,left,stimuli/objects/jackhammer.jpg,1,0,stimuli/red_butterfly.png,,,,,,,,,,,,,,,,,,,,,,,,,,,,,,,,
0,"[1,0,1,1]",,,,,,,,,11,2021-01-18_17h54.49.035,premce3DEU_ses-01_part-01_label-phase1,2020.1.2,Win32,60,left,0,0.89,0,0,5,5,5,1,6,stimuli/red_butterfly.png,stimuli/yellow_butterfly.png,2,stimuli/grey_flower.png,stimuli/brown_flower.png,stimuli/white_flower.png,stimuli/acqua_flower.png,up,stimuli/objects/mathcompass.jpg,1,0,stimuli/yellow_butterfly.png,,,,,,,,,,,,,,,,,,,,,,,,,,,,,,,,
0,"[1,0,1,1,0]",,,,,,,,,11,2021-01-18_17h54.49.035,premce3DEU_ses-01_part-01_label-phase1,2020.1.2,Win32,60,,0,,0,0,6,6,6,1,7,stimuli/yellow_butterfly.png,stimuli/red_butterfly.png,1,stimuli/white_flower.png,stimuli/brown_flower.png,stimuli/acqua_flower.png,stimuli/grey_flower.png,up,stimuli/objects/towelrack.jpg,1,0,stimuli/yellow_butterfly.png,,,,,,,,,,,,,,,,,,,,,,,,,,,,,,,,
1,"[1,0,1,1,0,0]",,,,,,,,,11,2021-01-18_17h54.49.035,premce3DEU_ses-01_part-01_label-phase1,2020.1.2,Win32,60,down,1,0.904,1,0,7,7,7,1,8,stimuli/red_butterfly.png,stimuli/yellow_butterfly.png,1,stimuli/brown_flower.png,stimuli/white_flower.png,stimuli/acqua_flower.png,stimuli/grey_flower.png,down,stimuli/objects/chainlinkfence.jpg,1,0,stimuli/red_butterfly.png,,,,,,,,,,,,,,,,,,,,,,,,,,,,,,,,
0,"[1,0,1,1,0,0,1]",,,,,,,,,11,2021-01-18_17h54.49.035,premce3DEU_ses-01_part-01_label-phase1,2020.1.2,Win32,60,right,0,1.339,0,0,8,8,8,1,9,stimuli/yellow_butterfly.png,stimuli/red_butterfly.png,1,stimuli/white_flower.png,stimuli/grey_flower.png,stimuli/brown_flower.png,stimuli/acqua_flower.png,down,stimuli/objects/curlingiron01a.jpg,1,0,stimuli/yellow_butterfly.png,,,,,,,,,,,,,,,,,,,,,,,,,,,,,,,,
0,"[1,0,1,1,0,0,1,0]",,,,,,,,,11,2021-01-18_17h54.49.035,premce3DEU_ses-01_part-01_label-phase1,2020.1.2,Win32,60,down,0,1.433,0,0,9,9,9,1,10,stimuli/red_butterfly.png,stimuli/yellow_butterfly.png,2,stimuli/white_flower.png,stimuli/acqua_flower.png,stimuli/grey_flower.png,stimuli/brown_flower.png,right,stimuli/objects/fingernail02.jpg,1,0,stimuli/yellow_butterfly.png,,,,,,,,,,,,,,,,,,,,,,,,,,,,,,,,
0,"[1,0,1,1,0,0,1,0,0]",,,,,,,,,11,2021-01-18_17h54.49.035,premce3DEU_ses-01_part-01_label-phase1,2020.1.2,Win32,60,left,0,2.261,0,0,10,10,10,1,11,stimuli/yellow_butterfly.png,stimuli/red_butterfly.png,2,stimuli/white_flower.png,stimuli/brown_flower.png,stimuli/acqua_flower.png,stimuli/grey_flower.png,down,stimuli/objects/barbecuelighter.jpg,1,0,stimuli/red_butterfly.png,,,,,,,,,,,,,,,,,,,,,,,,,,,,,,,,
1,"[1,0,1,1,0,0,1,0,0,0]",,,,,,,,,11,2021-01-18_17h54.49.035,premce3DEU_ses-01_part-01_label-phase1,2020.1.2,Win32,60,left,1,1.152,0,0,11,11,11,1,12,stimuli/yellow_butterfly.png,stimuli/red_butterfly.png,1,stimuli/grey_flower.png,stimuli/white_flower.png,stimuli/acqua_flower.png,stimuli/brown_flower.png,left,stimuli/objects/coatrack.jpg,0,0,stimuli/yellow_butterfly.png,,,,,,,,,,,,,,,,,,,,,,,,,,,,,,,,
0,"[1,0,1,1,0,0,1,0,0,0]",,,,,,,,,11,2021-01-18_17h54.49.035,premce3DEU_ses-01_part-01_label-phase1,2020.1.2,Win32,60,left,0,1.818,0,0,12,12,12,1,13,stimuli/yellow_butterfly.png,stimuli/red_butterfly.png,2,stimuli/acqua_flower.png,stimuli/grey_flower.png,stimuli/brown_flower.png,stimuli/white_flower.png,down,stimuli/objects/bulletbelt.jpg,0,0,stimuli/red_butterfly.png,,,,,,,,,,,,,,,,,,,,,,,,,,,,,,,,
0,"[1,0,1,1,0,0,1,0,0,0]",,,,,,,,,11,2021-01-18_17h54.49.035,premce3DEU_ses-01_part-01_label-phase1,2020.1.2,Win32,60,right,0,2.286,0,0,13,13,13,1,14,stimuli/yellow_butterfly.png,stimuli/red_butterfly.png,2,stimuli/brown_flower.png,stimuli/grey_flower.png,stimuli/acqua_flower.png,stimuli/white_flower.png,down,stimuli/objects/skippingrope.jpg,1,0,stimuli/red_butterfly.png,,,,,,,,,,,,,,,,,,,,,,,,,,,,,,,,
0,"[1,0,1,1,0,0,1,0,0,0,0]",,,,,,,,,11,2021-01-18_17h54.49.035,premce3DEU_ses-01_part-01_label-phase1,2020.1.2,Win32,60,left,0,0.969,0,0,14,14,14,1,15,stimuli/red_butterfly.png,stimuli/yellow_butterfly.png,1,stimuli/grey_flower.png,stimuli/brown_flower.png,stimuli/white_flower.png,stimuli/acqua_flower.png,right,stimuli/objects/rowboat.jpg,1,0,stimuli/red_butterfly.png,,,,,,,,,,,,,,,,,,,,,,,,,,,,,,,,
0,"[1,0,1,1,0,0,1,0,0,0,0,0]",,,,,,,,,11,2021-01-18_17h54.49.035,premce3DEU_ses-01_part-01_label-phase1,2020.1.2,Win32,60,right,0,1.399,0,0,15,15,15,1,16,stimuli/red_butterfly.png,stimuli/yellow_butterfly.png,1,stimuli/grey_flower.png,stimuli/white_flower.png,stimuli/acqua_flower.png,stimuli/brown_flower.png,down,stimuli/objects/pipewrench.jpg,1,0,stimuli/red_butterfly.png,,,,,,,,,,,,,,,,,,,,,,,,,,,,,,,,
1,"[1,0,1,1,0,0,1,0,0,0,0,0,0]",,,,,,,,,11,2021-01-18_17h54.49.035,premce3DEU_ses-01_part-01_label-phase1,2020.1.2,Win32,60,up,1,1.304,1,0,16,16,16,1,17,stimuli/red_butterfly.png,stimuli/yellow_butterfly.png,1,stimuli/white_flower.png,stimuli/acqua_flower.png,stimuli/grey_flower.png,stimuli/brown_flower.png,up,stimuli/objects/toyfiretruck.jpg,1,0,stimuli/red_butterfly.png,,,,,,,,,,,,,,,,,,,,,,,,,,,,,,,,
0,"[1,0,1,1,0,0,1,0,0,0,0,0,0,1]",,,,,,,,,11,2021-01-18_17h54.49.035,premce3DEU_ses-01_part-01_label-phase1,2020.1.2,Win32,60,,0,,0,0,17,17,17,1,18,stimuli/red_butterfly.png,stimuli/yellow_butterfly.png,2,stimuli/brown_flower.png,stimuli/acqua_flower.png,stimuli/grey_flower.png,stimuli/white_flower.png,left,stimuli/objects/butterfly4.jpg,1,0,stimuli/yellow_butterfly.png,,,,,,,,,,,,,,,,,,,,,,,,,,,,,,,,
0,"[1,0,1,1,0,0,1,0,0,0,0,0,0,1,0]",,,,,,,,,11,2021-01-18_17h54.49.035,premce3DEU_ses-01_part-01_label-phase1,2020.1.2,Win32,60,,0,,0,0,18,18,18,1,19,stimuli/yellow_butterfly.png,stimuli/red_butterfly.png,1,stimuli/acqua_flower.png,stimuli/brown_flower.png,stimuli/white_flower.png,stimuli/grey_flower.png,up,stimuli/objects/laundrybasket01a.jpg,1,0,stimuli/yellow_butterfly.png,,,,,,,,,,,,,,,,,,,,,,,,,,,,,,,,
0,"[1,0,1,1,0,0,1,0,0,0,0,0,0,1,0,0]",,,,,,,,,11,2021-01-18_17h54.49.035,premce3DEU_ses-01_part-01_label-phase1,2020.1.2,Win32,60,up,0,1.272,0,0,19,19,19,1,20,stimuli/red_butterfly.png,stimuli/yellow_butterfly.png,2,stimuli/acqua_flower.png,stimuli/grey_flower.png,stimuli/white_flower.png,stimuli/brown_flower.png,right,stimuli/objects/rollercoaster.jpg,1,0,stimuli/yellow_butterfly.png,,,,,,,,,,,,,,,,,,,,,,,,,,,,,,,,
0,"[1,0,1,1,0,0,1,0,0,0,0,0,0,1,0,0,0]",,,,,,,,,11,2021-01-18_17h54.49.035,premce3DEU_ses-01_part-01_label-phase1,2020.1.2,Win32,60,left,0,1.024,0,0,20,20,20,1,21,stimuli/red_butterfly.png,stimuli/yellow_butterfly.png,1,stimuli/grey_flower.png,stimuli/brown_flower.png,stimuli/acqua_flower.png,stimuli/white_flower.png,down,stimuli/objects/beret01.jpg,1,0,stimuli/red_butterfly.png,,,,,,,,,,,,,,,,,,,,,,,,,,,,,,,,
0,"[1,0,1,1,0,0,1,0,0,0,0,0,0,1,0,0,0,0]",,,,,,,,,11,2021-01-18_17h54.49.035,premce3DEU_ses-01_part-01_label-phase1,2020.1.2,Win32,60,left,0,0.649,0,0,21,21,21,1,22,stimuli/red_butterfly.png,stimuli/yellow_butterfly.png,2,stimuli/grey_flower.png,stimuli/brown_flower.png,stimuli/acqua_flower.png,stimuli/white_flower.png,up,stimuli/objects/bucket02.jpg,1,0,stimuli/yellow_butterfly.png,,,,,,,,,,,,,,,,,,,,,,,,,,,,,,,,
1,"[1,0,1,1,0,0,1,0,0,0,0,0,0,1,0,0,0,0,0]",,,,,,,,,11,2021-01-18_17h54.49.035,premce3DEU_ses-01_part-01_label-phase1,2020.1.2,Win32,60,right,1,1.179,1,0,22,22,22,1,23,stimuli/yellow_butterfly.png,stimuli/red_butterfly.png,2,stimuli/brown_flower.png,stimuli/white_flower.png,stimuli/grey_flower.png,stimuli/acqua_flower.png,right,stimuli/objects/eyechart.jpg,1,0,stimuli/red_butterfly.png,,,,,,,,,,,,,,,,,,,,,,,,,,,,,,,,
0,"[1,0,1,1,0,0,1,0,0,0,0,0,0,1,0,0,0,0,0,1]",,,,,,,,,11,2021-01-18_17h54.49.035,premce3DEU_ses-01_part-01_label-phase1,2020.1.2,Win32,60,up,0,2.328,0,0,23,23,23,1,24,stimuli/red_butterfly.png,stimuli/yellow_butterfly.png,2,stimuli/brown_flower.png,stimuli/white_flower.png,stimuli/grey_flower.png,stimuli/acqua_flower.png,left,stimuli/objects/chocolatechip.jpg,1,0,stimuli/yellow_butterfly.png,,,,,,,,,,,,,,,,,,,,,,,,,,,,,,,,
0,"[1,0,1,1,0,0,1,0,0,0,0,0,0,1,0,0,0,0,0,1,0]",,,,,,,,,11,2021-01-18_17h54.49.035,premce3DEU_ses-01_part-01_label-phase1,2020.1.2,Win32,60,right,0,1.223,0,0,24,24,24,1,25,stimuli/red_butterfly.png,stimuli/yellow_butterfly.png,1,stimuli/acqua_flower.png,stimuli/grey_flower.png,stimuli/white_flower.png,stimuli/brown_flower.png,left,stimuli/objects/bulldozer.jpg,1,0,stimuli/red_butterfly.png,,,,,,,,,,,,,,,,,,,,,,,,,,,,,,,,
1,"[1,0,1,1,0,0,1,0,0,0,0,0,0,1,0,0,0,0,0,1,0,0]",,,,,,,,,11,2021-01-18_17h54.49.035,premce3DEU_ses-01_part-01_label-phase1,2020.1.2,Win32,60,down,1,0.939,1,0,25,25,25,1,26,stimuli/yellow_butterfly.png,stimuli/red_butterfly.png,2,stimuli/grey_flower.png,stimuli/white_flower.png,stimuli/acqua_flower.png,stimuli/brown_flower.png,down,stimuli/objects/dresser02.jpg,1,0,stimuli/red_butterfly.png,,,,,,,,,,,,,,,,,,,,,,,,,,,,,,,,
0,"[1,0,1,1,0,0,1,0,0,0,0,0,0,1,0,0,0,0,0,1,0,0,1]",,,,,,,,,11,2021-01-18_17h54.49.035,premce3DEU_ses-01_part-01_label-phase1,2020.1.2,Win32,60,right,0,1.983,0,0,26,26,26,1,27,stimuli/yellow_butterfly.png,stimuli/red_butterfly.png,2,stimuli/grey_flower.png,stimuli/acqua_flower.png,stimuli/brown_flower.png,stimuli/white_flower.png,up,stimuli/objects/chimpanzee.jpg,1,0,stimuli/red_butterfly.png,,,,,,,,,,,,,,,,,,,,,,,,,,,,,,,,
0,"[1,0,1,1,0,0,1,0,0,0,0,0,0,1,0,0,0,0,0,1,0,0,1,0]",,,,,,,,,11,2021-01-18_17h54.49.035,premce3DEU_ses-01_part-01_label-phase1,2020.1.2,Win32,60,down,0,1.885,0,0,27,27,27,1,28,stimuli/yellow_butterfly.png,stimuli/red_butterfly.png,1,stimuli/acqua_flower.png,stimuli/brown_flower.png,stimuli/grey_flower.png,stimuli/white_flower.png,right,stimuli/objects/stingray.jpg,0,0,stimuli/yellow_butterfly.png,,,,,,,,,,,,,,,,,,,,,,,,,,,,,,,,
0,"[1,0,1,1,0,0,1,0,0,0,0,0,0,1,0,0,0,0,0,1,0,0,1,0]",,,,,,,,,11,2021-01-18_17h54.49.035,premce3DEU_ses-01_part-01_label-phase1,2020.1.2,Win32,60,right,0,2.103,0,0,28,28,28,1,29,stimuli/red_butterfly.png,stimuli/yellow_butterfly.png,2,stimuli/acqua_flower.png,stimuli/grey_flower.png,stimuli/brown_flower.png,stimuli/white_flower.png,down,stimuli/objects/woodenshoe.jpg,1,0,stimuli/yellow_butterfly.png,,,,,,,,,,,,,,,,,,,,,,,,,,,,,,,,
1,"[1,0,1,1,0,0,1,0,0,0,0,0,0,1,0,0,0,0,0,1,0,0,1,0,0]",,,,,,,,,11,2021-01-18_17h54.49.035,premce3DEU_ses-01_part-01_label-phase1,2020.1.2,Win32,60,right,1,1.301,1,0,29,29,29,1,30,stimuli/red_butterfly.png,stimuli/yellow_butterfly.png,2,stimuli/white_flower.png,stimuli/grey_flower.png,stimuli/acqua_flower.png,stimuli/brown_flower.png,right,stimuli/objects/scanner.jpg,1,0,stimuli/yellow_butterfly.png,,,,,,,,,,,,,,,,,,,,,,,,,,,,,,,,
0,"[1,0,1,1,0,0,1,0,0,0,0,0,0,1,0,0,0,0,0,1,0,0,1,0,0,1]",,,,,,,,,11,2021-01-18_17h54.49.035,premce3DEU_ses-01_part-01_label-phase1,2020.1.2,Win32,60,down,0,1.554,0,0,30,30,30,1,31,stimuli/yellow_butterfly.png,stimuli/red_butterfly.png,1,stimuli/grey_flower.png,stimuli/brown_flower.png,stimuli/white_flower.png,stimuli/acqua_flower.png,up,stimuli/objects/desk02.jpg,1,0,stimuli/yellow_butterfly.png,,,,,,,,,,,,,,,,,,,,,,,,,,,,,,,,
1,"[1,0,1,1,0,0,1,0,0,0,0,0,0,1,0,0,0,0,0,1,0,0,1,0,0,1,0]",,,,,,,,,11,2021-01-18_17h54.49.035,premce3DEU_ses-01_part-01_label-phase1,2020.1.2,Win32,60,left,1,1.085,1,0,31,31,31,1,32,stimuli/red_butterfly.png,stimuli/yellow_butterfly.png,2,stimuli/brown_flower.png,stimuli/grey_flower.png,stimuli/white_flower.png,stimuli/acqua_flower.png,left,stimuli/objects/doublebass.jpg,1,0,stimuli/yellow_butterfly.png,,,,,,,,,,,,,,,,,,,,,,,,,,,,,,,,
1,"[1,0,1,1,0,0,1,0,0,0,0,0,0,1,0,0,0,0,0,1,0,0,1,0,0,1,0,1]",,,,,,,,,11,2021-01-18_17h54.49.035,premce3DEU_ses-01_part-01_label-phase1,2020.1.2,Win32,60,right,1,1.148,1,0,32,32,32,1,33,stimuli/yellow_butterfly.png,stimuli/red_butterfly.png,2,stimuli/white_flower.png,stimuli/brown_flower.png,stimuli/grey_flower.png,stimuli/acqua_flower.png,right,stimuli/objects/fern.jpg,1,0,stimuli/red_butterfly.png,,,,,,,,,,,,,,,,,,,,,,,,,,,,,,,,
1,"[1,0,1,1,0,0,1,0,0,0,0,0,0,1,0,0,0,0,0,1,0,0,1,0,0,1,0,1,1]",,,,,,,,,11,2021-01-18_17h54.49.035,premce3DEU_ses-01_part-01_label-phase1,2020.1.2,Win32,60,left,1,1.635,1,0,33,33,33,1,34,stimuli/red_butterfly.png,stimuli/yellow_butterfly.png,1,stimuli/acqua_flower.png,stimuli/white_flower.png,stimuli/brown_flower.png,stimuli/grey_flower.png,left,stimuli/objects/clarinet.jpg,1,0,stimuli/red_butterfly.png,,,,,,,,,,,,,,,,,,,,,,,,,,,,,,,,
0,"[1,0,1,1,0,0,1,0,0,0,0,0,0,1,0,0,0,0,0,1,0,0,1,0,0,1,0,1,1,1]",,,,,,,,,11,2021-01-18_17h54.49.035,premce3DEU_ses-01_part-01_label-phase1,2020.1.2,Win32,60,left,0,0.56,1,0,34,34,34,1,35,stimuli/red_butterfly.png,stimuli/yellow_butterfly.png,1,stimuli/acqua_flower.png,stimuli/grey_flower.png,stimuli/brown_flower.png,stimuli/white_flower.png,up,stimuli/objects/maplebuttercone.jpg,0,0,stimuli/red_butterfly.png,,,,,,,,,,,,,,,,,,,,,,,,,,,,,,,,
0,"[1,0,1,1,0,0,1,0,0,0,0,0,0,1,0,0,0,0,0,1,0,0,1,0,0,1,0,1,1,1]",,,,,,,,,11,2021-01-18_17h54.49.035,premce3DEU_ses-01_part-01_label-phase1,2020.1.2,Win32,60,right,0,0.487,0,0,35,35,35,1,36,stimuli/yellow_butterfly.png,stimuli/red_butterfly.png,2,stimuli/brown_flower.png,stimuli/white_flower.png,stimuli/acqua_flower.png,stimuli/grey_flower.png,down,stimuli/objects/aloe01.jpg,1,0,stimuli/red_butterfly.png,,,,,,,,,,,,,,,,,,,,,,,,,,,,,,,,
0,"[1,0,1,1,0,0,1,0,0,0,0,0,0,1,0,0,0,0,0,1,0,0,1,0,0,1,0,1,1,1,0]",,,,,,,,,11,2021-01-18_17h54.49.035,premce3DEU_ses-01_part-01_label-phase1,2020.1.2,Win32,60,right,0,2.164,0,0,36,36,36,1,37,stimuli/yellow_butterfly.png,stimuli/red_butterfly.png,2,stimuli/brown_flower.png,stimuli/grey_flower.png,stimuli/white_flower.png,stimuli/acqua_flower.png,up,stimuli/objects/butterfly3.jpg,0,0,stimuli/red_butterfly.png,,,,,,,,,,,,,,,,,,,,,,,,,,,,,,,,
0,"[1,0,1,1,0,0,1,0,0,0,0,0,0,1,0,0,0,0,0,1,0,0,1,0,0,1,0,1,1,1,0]",,,,,,,,,11,2021-01-18_17h54.49.035,premce3DEU_ses-01_part-01_label-phase1,2020.1.2,Win32,60,left,0,2.384,0,0,37,37,37,1,38,stimuli/yellow_butterfly.png,stimuli/red_butterfly.png,1,stimuli/white_flower.png,stimuli/acqua_flower.png,stimuli/grey_flower.png,stimuli/brown_flower.png,right,stimuli/objects/gift01.jpg,1,0,stimuli/yellow_butterfly.png,,,,,,,,,,,,,,,,,,,,,,,,,,,,,,,,
1,"[1,0,1,1,0,0,1,0,0,0,0,0,0,1,0,0,0,0,0,1,0,0,1,0,0,1,0,1,1,1,0,0]",,,,,,,,,11,2021-01-18_17h54.49.035,premce3DEU_ses-01_part-01_label-phase1,2020.1.2,Win32,60,right,1,1.856,1,0,38,38,38,1,39,stimuli/red_butterfly.png,stimuli/yellow_butterfly.png,1,stimuli/brown_flower.png,stimuli/white_flower.png,stimuli/grey_flower.png,stimuli/acqua_flower.png,right,stimuli/objects/oyster02.jpg,1,0,stimuli/red_butterfly.png,,,,,,,,,,,,,,,,,,,,,,,,,,,,,,,,
0,"[1,0,1,1,0,0,1,0,0,0,0,0,0,1,0,0,0,0,0,1,0,0,1,0,0,1,0,1,1,1,0,0,1]",,,,,,,,,11,2021-01-18_17h54.49.035,premce3DEU_ses-01_part-01_label-phase1,2020.1.2,Win32,60,left,0,1.888,0,0,39,39,39,1,40,stimuli/yellow_butterfly.png,stimuli/red_butterfly.png,1,stimuli/grey_flower.png,stimuli/white_flower.png,stimuli/brown_flower.png,stimuli/acqua_flower.png,down,stimuli/objects/mug05.jpg,1,0,stimuli/yellow_butterfly.png,,,,,,,,,,,,,,,,,,,,,,,,,,,,,,,,
0,"[1,0,1,1,0,0,1,0,0,0,0,0,0,1,0,0,0,0,0,1,0,0,1,0,0,1,0,1,1,1,0,0,1,0]",,,,,,,,,11,2021-01-18_17h54.49.035,premce3DEU_ses-01_part-01_label-phase1,2020.1.2,Win32,60,,0,,0,0,40,40,40,1,41,stimuli/red_butterfly.png,stimuli/yellow_butterfly.png,1,stimuli/grey_flower.png,stimuli/white_flower.png,stimuli/brown_flower.png,stimuli/acqua_flower.png,right,stimuli/objects/aluminiumfoil.jpg,1,0,stimuli/red_butterfly.png,,,,,,,,,,,,,,,,,,,,,,,,,,,,,,,,
1,"[1,0,1,1,0,0,1,0,0,0,0,0,0,1,0,0,0,0,0,1,0,0,1,0,0,1,0,1,1,1,0,0,1,0,0]",,,,,,,,,11,2021-01-18_17h54.49.035,premce3DEU_ses-01_part-01_label-phase1,2020.1.2,Win32,60,left,1,1.146,1,0,41,41,41,1,42,stimuli/yellow_butterfly.png,stimuli/red_butterfly.png,1,stimuli/brown_flower.png,stimuli/white_flower.png,stimuli/grey_flower.png,stimuli/acqua_flower.png,left,stimuli/objects/parkbench02.jpg,1,0,stimuli/yellow_butterfly.png,,,,,,,,,,,,,,,,,,,,,,,,,,,,,,,,
0,"[1,0,1,1,0,0,1,0,0,0,0,0,0,1,0,0,0,0,0,1,0,0,1,0,0,1,0,1,1,1,0,0,1,0,0,1]",,,,,,,,,11,2021-01-18_17h54.49.035,premce3DEU_ses-01_part-01_label-phase1,2020.1.2,Win32,60,right,0,1.032,0,0,42,42,42,1,43,stimuli/yellow_butterfly.png,stimuli/red_butterfly.png,1,stimuli/acqua_flower.png,stimuli/white_flower.png,stimuli/brown_flower.png,stimuli/grey_flower.png,down,stimuli/objects/sportsjersey.jpg,1,0,stimuli/yellow_butterfly.png,,,,,,,,,,,,,,,,,,,,,,,,,,,,,,,,
1,"[1,0,1,1,0,0,1,0,0,0,0,0,0,1,0,0,0,0,0,1,0,0,1,0,0,1,0,1,1,1,0,0,1,0,0,1,0]",,,,,,,,,11,2021-01-18_17h54.49.035,premce3DEU_ses-01_part-01_label-phase1,2020.1.2,Win32,60,right,1,2.023,1,0,43,43,43,1,44,stimuli/yellow_butterfly.png,stimuli/red_butterfly.png,1,stimuli/acqua_flower.png,stimuli/grey_flower.png,stimuli/white_flower.png,stimuli/brown_flower.png,right,stimuli/objects/badger.jpg,1,0,stimuli/yellow_butterfly.png,,,,,,,,,,,,,,,,,,,,,,,,,,,,,,,,
1,"[1,0,1,1,0,0,1,0,0,0,0,0,0,1,0,0,0,0,0,1,0,0,1,0,0,1,0,1,1,1,0,0,1,0,0,1,0,1]",,,,,,,,,11,2021-01-18_17h54.49.035,premce3DEU_ses-01_part-01_label-phase1,2020.1.2,Win32,60,up,1,1.045,1,0,44,44,44,1,45,stimuli/red_butterfly.png,stimuli/yellow_butterfly.png,2,stimuli/white_flower.png,stimuli/brown_flower.png,stimuli/acqua_flower.png,stimuli/grey_flower.png,up,stimuli/objects/humanskeleton.jpg,1,0,stimuli/yellow_butterfly.png,,,,,,,,,,,,,,,,,,,,,,,,,,,,,,,,
1,"[1,0,1,1,0,0,1,0,0,0,0,0,0,1,0,0,0,0,0,1,0,0,1,0,0,1,0,1,1,1,0,0,1,0,0,1,0,1,1]",,,,,,,,,11,2021-01-18_17h54.49.035,premce3DEU_ses-01_part-01_label-phase1,2020.1.2,Win32,60,left,1,0.551,1,0,45,45,45,1,46,stimuli/yellow_butterfly.png,stimuli/red_butterfly.png,2,stimuli/acqua_flower.png,stimuli/brown_flower.png,stimuli/white_flower.png,stimuli/grey_flower.png,left,stimuli/objects/fennec.jpg,1,0,stimuli/red_butterfly.png,,,,,,,,,,,,,,,,,,,,,,,,,,,,,,,,
0,"[1,0,1,1,0,0,1,0,0,0,0,0,0,1,0,0,0,0,0,1,0,0,1,0,0,1,0,1,1,1,0,0,1,0,0,1,0,1,1,1]",,,,,,,,,11,2021-01-18_17h54.49.035,premce3DEU_ses-01_part-01_label-phase1,2020.1.2,Win32,60,left,0,1.026,0,0,46,46,46,1,47,stimuli/red_butterfly.png,stimuli/yellow_butterfly.png,2,stimuli/acqua_flower.png,stimuli/white_flower.png,stimuli/grey_flower.png,stimuli/brown_flower.png,right,stimuli/objects/birthdaycandle.jpg,1,0,stimuli/yellow_butterfly.png,,,,,,,,,,,,,,,,,,,,,,,,,,,,,,,,
1,"[1,0,1,1,0,0,1,0,0,0,0,0,0,1,0,0,0,0,0,1,0,0,1,0,0,1,0,1,1,1,0,0,1,0,0,1,0,1,1,1,0]",,,,,,,,,11,2021-01-18_17h54.49.035,premce3DEU_ses-01_part-01_label-phase1,2020.1.2,Win32,60,down,1,1.973,1,0,47,47,47,1,48,stimuli/red_butterfly.png,stimuli/yellow_butterfly.png,1,stimuli/white_flower.png,stimuli/brown_flower.png,stimuli/acqua_flower.png,stimuli/grey_flower.png,down,stimuli/objects/dryingmachine02.jpg,1,0,stimuli/red_butterfly.png,,,,,,,,,,,,,,,,,,,,,,,,,,,,,,,,
,[],,,,,,,,,11,2021-01-18_17h54.49.035,premce3DEU_ses-01_part-01_label-phase1,2020.1.2,Win32,60,,,,,,,,,,,,,,,,,,,,,,,0,0,0,0,1,,,,,,,,,,,,,,,,,,,,,,,,,,,
1,[],,,,,,,,,11,2021-01-18_17h54.49.035,premce3DEU_ses-01_part-01_label-phase1,2020.1.2,Win32,60,,,,1,,,,,,,stimuli/white_butterfly.png,stimuli/grey_butterfly.png,2,stimuli/yellow_flower.png,stimuli/green_flower.png,stimuli/red_flower.png,stimuli/blue_flower.png,down,stimuli/objects/chainsaw.jpg,1,1,stimuli/grey_butterfly.png,,,,,,down,1,1.655,0,0,0,0,1,0,,,,,,,,,,,,,,,,,,
1,[1],,,,,,,,,11,2021-01-18_17h54.49.035,premce3DEU_ses-01_part-01_label-phase1,2020.1.2,Win32,60,,,,1,,,,,,,stimuli/white_butterfly.png,stimuli/grey_butterfly.png,2,stimuli/red_flower.png,stimuli/yellow_flower.png,stimuli/green_flower.png,stimuli/blue_flower.png,left,stimuli/objects/chefshat.jpg,1,1,stimuli/grey_butterfly.png,,,,,,left,1,0.609,0,1,1,1,1,0,,,,,,,,,,,,,,,,,,
1,"[1,1]",,,,,,,,,11,2021-01-18_17h54.49.035,premce3DEU_ses-01_part-01_label-phase1,2020.1.2,Win32,60,,,,1,,,,,,,stimuli/grey_butterfly.png,stimuli/white_butterfly.png,1,stimuli/red_flower.png,stimuli/blue_flower.png,stimuli/green_flower.png,stimuli/yellow_flower.png,left,stimuli/objects/ceilingfan01.jpg,1,1,stimuli/grey_butterfly.png,,,,,,left,1,0.96,0,2,2,2,1,0,,,,,,,,,,,,,,,,,,
1,"[1,1,1]",,,,,,,,,11,2021-01-18_17h54.49.035,premce3DEU_ses-01_part-01_label-phase1,2020.1.2,Win32,60,,,,1,,,,,,,stimuli/white_butterfly.png,stimuli/grey_butterfly.png,1,stimuli/green_flower.png,stimuli/yellow_flower.png,stimuli/red_flower.png,stimuli/blue_flower.png,right,stimuli/objects/bow.jpg,1,1,stimuli/white_butterfly.png,,,,,,right,1,1.038,0,3,3,3,1,0,,,,,,,,,,,,,,,,,,
0,"[1,1,1,1]",,,,,,,,,11,2021-01-18_17h54.49.035,premce3DEU_ses-01_part-01_label-phase1,2020.1.2,Win32,60,,,,0,,,,,,,stimuli/grey_butterfly.png,stimuli/white_butterfly.png,1,stimuli/blue_flower.png,stimuli/yellow_flower.png,stimuli/green_flower.png,stimuli/red_flower.png,right,stimuli/objects/vulture.jpg,1,1,stimuli/grey_butterfly.png,,,,,,left,0,1.1,0,4,4,4,1,0,,,,,,,,,,,,,,,,,,
1,"[1,1,1,1,0]",,,,,,,,,11,2021-01-18_17h54.49.035,premce3DEU_ses-01_part-01_label-phase1,2020.1.2,Win32,60,,,,1,,,,,,,stimuli/grey_butterfly.png,stimuli/white_butterfly.png,2,stimuli/red_flower.png,stimuli/yellow_flower.png,stimuli/blue_flower.png,stimuli/green_flower.png,down,stimuli/objects/floortile02.jpg,1,1,stimuli/white_butterfly.png,,,,,,down,1,1.045,0,5,5,5,1,0,,,,,,,,,,,,,,,,,,
1,"[1,1,1,1,0,1]",,,,,,,,,11,2021-01-18_17h54.49.035,premce3DEU_ses-01_part-01_label-phase1,2020.1.2,Win32,60,,,,1,,,,,,,stimuli/grey_butterfly.png,stimuli/white_butterfly.png,1,stimuli/red_flower.png,stimuli/blue_flower.png,stimuli/yellow_flower.png,stimuli/green_flower.png,left,stimuli/objects/diploma02.jpg,1,1,stimuli/grey_butterfly.png,,,,,,left,1,1.317,0,6,6,6,1,0,,,,,,,,,,,,,,,,,,
1,"[1,1,1,1,0,1,1]",,,,,,,,,11,2021-01-18_17h54.49.035,premce3DEU_ses-01_part-01_label-phase1,2020.1.2,Win32,60,,,,1,,,,,,,stimuli/white_butterfly.png,stimuli/grey_butterfly.png,2,stimuli/green_flower.png,stimuli/yellow_flower.png,stimuli/blue_flower.png,stimuli/red_flower.png,right,stimuli/objects/locker.jpg,1,1,stimuli/grey_butterfly.png,,,,,,right,1,1.858,0,7,7,7,1,0,,,,,,,,,,,,,,,,,,
1,"[1,1,1,1,0,1,1,1]",,,,,,,,,11,2021-01-18_17h54.49.035,premce3DEU_ses-01_part-01_label-phase1,2020.1.2,Win32,60,,,,1,,,,,,,stimuli/white_butterfly.png,stimuli/grey_butterfly.png,2,stimuli/yellow_flower.png,stimuli/green_flower.png,stimuli/blue_flower.png,stimuli/red_flower.png,right,stimuli/objects/gavel.jpg,1,1,stimuli/grey_butterfly.png,,,,,,right,1,0.891,0,8,8,8,1,0,,,,,,,,,,,,,,,,,,
1,"[1,1,1,1,0,1,1,1,1]",,,,,,,,,11,2021-01-18_17h54.49.035,premce3DEU_ses-01_part-01_label-phase1,2020.1.2,Win32,60,,,,1,,,,,,,stimuli/white_butterfly.png,stimuli/grey_butterfly.png,2,stimuli/yellow_flower.png,stimuli/red_flower.png,stimuli/green_flower.png,stimuli/blue_flower.png,up,stimuli/objects/bowtie.jpg,1,1,stimuli/grey_butterfly.png,,,,,,up,1,0.758,0,9,9,9,1,0,,,,,,,,,,,,,,,,,,
1,"[1,1,1,1,0,1,1,1,1,1]",,,,,,,,,11,2021-01-18_17h54.49.035,premce3DEU_ses-01_part-01_label-phase1,2020.1.2,Win32,60,,,,1,,,,,,,stimuli/grey_butterfly.png,stimuli/white_butterfly.png,2,stimuli/red_flower.png,stimuli/blue_flower.png,stimuli/yellow_flower.png,stimuli/green_flower.png,up,stimuli/objects/swimsuit.jpg,1,1,stimuli/white_butterfly.png,,,,,,up,1,2.262,0,10,10,10,1,0,,,,,,,,,,,,,,,,,,
0,"[1,1,1,1,0,1,1,1,1,1,1]",,,,,,,,,11,2021-01-18_17h54.49.035,premce3DEU_ses-01_part-01_label-phase1,2020.1.2,Win32,60,,,,0,,,,,,,stimuli/white_butterfly.png,stimuli/grey_butterfly.png,1,stimuli/yellow_flower.png,stimuli/green_flower.png,stimuli/blue_flower.png,stimuli/red_flower.png,down,stimuli/objects/snowboard.jpg,1,1,stimuli/white_butterfly.png,,,,,,right,0,2.165,0,11,11,11,1,0,,,,,,,,,,,,,,,,,,
1,"[1,1,1,1,0,1,1,1,1,1,1,0]",,,,,,,,,11,2021-01-18_17h54.49.035,premce3DEU_ses-01_part-01_label-phase1,2020.1.2,Win32,60,,,,1,,,,,,,stimuli/white_butterfly.png,stimuli/grey_butterfly.png,1,stimuli/red_flower.png,stimuli/yellow_flower.png,stimuli/green_flower.png,stimuli/blue_flower.png,right,stimuli/objects/sheriffhat.jpg,1,1,stimuli/white_butterfly.png,,,,,,right,1,0.809,0,12,12,12,1,0,,,,,,,,,,,,,,,,,,
1,"[1,1,1,1,0,1,1,1,1,1,1,0,1]",,,,,,,,,11,2021-01-18_17h54.49.035,premce3DEU_ses-01_part-01_label-phase1,2020.1.2,Win32,60,,,,1,,,,,,,stimuli/white_butterfly.png,stimuli/grey_butterfly.png,1,stimuli/blue_flower.png,stimuli/red_flower.png,stimuli/green_flower.png,stimuli/yellow_flower.png,left,stimuli/objects/christmastree.jpg,1,1,stimuli/white_butterfly.png,,,,,,left,1,0.829,0,13,13,13,1,0,,,,,,,,,,,,,,,,,,
1,"[1,1,1,1,0,1,1,1,1,1,1,0,1,1]",,,,,,,,,11,2021-01-18_17h54.49.035,premce3DEU_ses-01_part-01_label-phase1,2020.1.2,Win32,60,,,,1,,,,,,,stimuli/grey_butterfly.png,stimuli/white_butterfly.png,1,stimuli/green_flower.png,stimuli/yellow_flower.png,stimuli/red_flower.png,stimuli/blue_flower.png,down,stimuli/objects/pickaxe02.jpg,1,1,stimuli/grey_butterfly.png,,,,,,down,1,1.57,0,14,14,14,1,0,,,,,,,,,,,,,,,,,,
1,"[1,1,1,1,0,1,1,1,1,1,1,0,1,1,1]",,,,,,,,,11,2021-01-18_17h54.49.035,premce3DEU_ses-01_part-01_label-phase1,2020.1.2,Win32,60,,,,1,,,,,,,stimuli/grey_butterfly.png,stimuli/white_butterfly.png,1,stimuli/green_flower.png,stimuli/red_flower.png,stimuli/blue_flower.png,stimuli/yellow_flower.png,up,stimuli/objects/dormer.jpg,1,1,stimuli/grey_butterfly.png,,,,,,up,1,1.148,0,15,15,15,1,0,,,,,,,,,,,,,,,,,,
1,"[1,1,1,1,0,1,1,1,1,1,1,0,1,1,1,1]",,,,,,,,,11,2021-01-18_17h54.49.035,premce3DEU_ses-01_part-01_label-phase1,2020.1.2,Win32,60,,,,1,,,,,,,stimuli/grey_butterfly.png,stimuli/white_butterfly.png,1,stimuli/red_flower.png,stimuli/yellow_flower.png,stimuli/green_flower.png,stimuli/blue_flower.png,left,stimuli/objects/lilypad.jpg,1,1,stimuli/grey_butterfly.png,,,,,,left,1,1.328,0,16,16,16,1,0,,,,,,,,,,,,,,,,,,
1,"[1,1,1,1,0,1,1,1,1,1,1,0,1,1,1,1,1]",,,,,,,,,11,2021-01-18_17h54.49.035,premce3DEU_ses-01_part-01_label-phase1,2020.1.2,Win32,60,,,,1,,,,,,,stimuli/grey_butterfly.png,stimuli/white_butterfly.png,2,stimuli/yellow_flower.png,stimuli/red_flower.png,stimuli/blue_flower.png,stimuli/green_flower.png,down,stimuli/objects/butterfly4.jpg,1,1,stimuli/white_butterfly.png,,,,,,down,1,0.793,0,17,17,17,1,0,,,,,,,,,,,,,,,,,,
1,"[1,1,1,1,0,1,1,1,1,1,1,0,1,1,1,1,1,1]",,,,,,,,,11,2021-01-18_17h54.49.035,premce3DEU_ses-01_part-01_label-phase1,2020.1.2,Win32,60,,,,1,,,,,,,stimuli/white_butterfly.png,stimuli/grey_butterfly.png,1,stimuli/yellow_flower.png,stimuli/blue_flower.png,stimuli/green_flower.png,stimuli/red_flower.png,up,stimuli/objects/corn02.jpg,1,1,stimuli/white_butterfly.png,,,,,,up,1,0.939,0,18,18,18,1,0,,,,,,,,,,,,,,,,,,
0,"[1,1,1,1,0,1,1,1,1,1,1,0,1,1,1,1,1,1,1]",,,,,,,,,11,2021-01-18_17h54.49.035,premce3DEU_ses-01_part-01_label-phase1,2020.1.2,Win32,60,,,,0,,,,,,,stimuli/grey_butterfly.png,stimuli/white_butterfly.png,2,stimuli/yellow_flower.png,stimuli/blue_flower.png,stimuli/green_flower.png,stimuli/red_flower.png,up,stimuli/objects/americanwhitepelican.jpg,1,1,stimuli/white_butterfly.png,,,,,,right,0,0.616,0,19,19,19,1,0,,,,,,,,,,,,,,,,,,
1,"[1,1,1,1,0,1,1,1,1,1,1,0,1,1,1,1,1,1,1,0]",,,,,,,,,11,2021-01-18_17h54.49.035,premce3DEU_ses-01_part-01_label-phase1,2020.1.2,Win32,60,,,,1,,,,,,,stimuli/grey_butterfly.png,stimuli/white_butterfly.png,2,stimuli/green_flower.png,stimuli/red_flower.png,stimuli/yellow_flower.png,stimuli/blue_flower.png,right,stimuli/objects/flamingo.jpg,1,1,stimuli/white_butterfly.png,,,,,,right,1,1.549,0,20,20,20,1,0,,,,,,,,,,,,,,,,,,
1,"[1,1,1,1,0,1,1,1,1,1,1,0,1,1,1,1,1,1,1,0,1]",,,,,,,,,11,2021-01-18_17h54.49.035,premce3DEU_ses-01_part-01_label-phase1,2020.1.2,Win32,60,,,,1,,,,,,,stimuli/white_butterfly.png,stimuli/grey_butterfly.png,2,stimuli/yellow_flower.png,stimuli/red_flower.png,stimuli/blue_flower.png,stimuli/green_flower.png,up,stimuli/objects/parkfountain.jpg,1,1,stimuli/grey_butterfly.png,,,,,,up,1,0.553,0,21,21,21,1,1,,,,,,,,,,,,,,,,,,
1,"[1,1,1,1,0,1,1,1,1,1,1,0,1,1,1,1,1,1,1,0,1,1]",,,,,,,,,11,2021-01-18_17h54.49.035,premce3DEU_ses-01_part-01_label-phase1,2020.1.2,Win32,60,,,,1,,,,,,,stimuli/white_butterfly.png,stimuli/grey_butterfly.png,2,stimuli/blue_flower.png,stimuli/red_flower.png,stimuli/yellow_flower.png,stimuli/green_flower.png,up,stimuli/objects/wheelbarrow01.jpg,1,1,stimuli/grey_butterfly.png,,,,,,up,1,0.461,0,22,22,22,1,1,,,,,,,,,,,,,,,,,,
0,"[1,1,1,1,0,1,1,1,1,1,1,0,1,1,1,1,1,1,1,0,1,1,1]",,,,,,,,,11,2021-01-18_17h54.49.035,premce3DEU_ses-01_part-01_label-phase1,2020.1.2,Win32,60,,,,1,,,,,,,stimuli/white_butterfly.png,stimuli/grey_butterfly.png,2,stimuli/green_flower.png,stimuli/blue_flower.png,stimuli/red_flower.png,stimuli/yellow_flower.png,left,stimuli/objects/jeep.jpg,0,1,stimuli/grey_butterfly.png,,,,,,up,0,0.822,0,23,23,23,1,1,,,,,,,,,,,,,,,,,,
0,"[1,1,1,1,0,1,1,1,1,1,1,0,1,1,1,1,1,1,1,0,1,1,1]",,,,,,,,,11,2021-01-18_17h54.49.035,premce3DEU_ses-01_part-01_label-phase1,2020.1.2,Win32,60,,,,0,,,,,,,stimuli/white_butterfly.png,stimuli/grey_butterfly.png,1,stimuli/green_flower.png,stimuli/red_flower.png,stimuli/yellow_flower.png,stimuli/blue_flower.png,right,stimuli/objects/saxophone.jpg,1,1,stimuli/white_butterfly.png,,,,,,left,0,0.93,0,24,24,24,1,1,,,,,,,,,,,,,,,,,,
1,"[1,1,1,1,0,1,1,1,1,1,1,0,1,1,1,1,1,1,1,0,1,1,1,0]",,,,,,,,,11,2021-01-18_17h54.49.035,premce3DEU_ses-01_part-01_label-phase1,2020.1.2,Win32,60,,,,1,,,,,,,stimuli/white_butterfly.png,stimuli/grey_butterfly.png,1,stimuli/green_flower.png,stimuli/red_flower.png,stimuli/blue_flower.png,stimuli/yellow_flower.png,down,stimuli/objects/birdnest.jpg,1,1,stimuli/white_butterfly.png,,,,,,down,1,0.929,0,25,25,25,1,1,,,,,,,,,,,,,,,,,,
0,"[1,1,1,1,0,1,1,1,1,1,1,0,1,1,1,1,1,1,1,0,1,1,1,0,1]",,,,,,,,,11,2021-01-18_17h54.49.035,premce3DEU_ses-01_part-01_label-phase1,2020.1.2,Win32,60,,,,0,,,,,,,stimuli/grey_butterfly.png,stimuli/white_butterfly.png,1,stimuli/green_flower.png,stimuli/yellow_flower.png,stimuli/blue_flower.png,stimuli/red_flower.png,right,stimuli/objects/trampoline.jpg,1,1,stimuli/grey_butterfly.png,,,,,,left,0,0.467,0,26,26,26,1,1,,,,,,,,,,,,,,,,,,
1,"[1,1,1,1,0,1,1,1,1,1,1,0,1,1,1,1,1,1,1,0,1,1,1,0,1,0]",,,,,,,,,11,2021-01-18_17h54.49.035,premce3DEU_ses-01_part-01_label-phase1,2020.1.2,Win32,60,,,,1,,,,,,,stimuli/grey_butterfly.png,stimuli/white_butterfly.png,2,stimuli/red_flower.png,stimuli/green_flower.png,stimuli/blue_flower.png,stimuli/yellow_flower.png,down,stimuli/objects/pitchfork.jpg,1,1,stimuli/white_butterfly.png,,,,,,down,1,0.48,0,27,27,27,1,1,,,,,,,,,,,,,,,,,,
1,"[1,1,1,1,0,1,1,1,1,1,1,0,1,1,1,1,1,1,1,0,1,1,1,0,1,0,1]",,,,,,,,,11,2021-01-18_17h54.49.035,premce3DEU_ses-01_part-01_label-phase1,2020.1.2,Win32,60,,,,1,,,,,,,stimuli/white_butterfly.png,stimuli/grey_butterfly.png,2,stimuli/red_flower.png,stimuli/blue_flower.png,stimuli/green_flower.png,stimuli/yellow_flower.png,left,stimuli/objects/baseballbat.jpg,1,1,stimuli/grey_butterfly.png,,,,,,left,1,0.796,0,28,28,28,1,1,,,,,,,,,,,,,,,,,,
0,"[1,1,1,1,0,1,1,1,1,1,1,0,1,1,1,1,1,1,1,0,1,1,1,0,1,0,1,1]",,,,,,,,,11,2021-01-18_17h54.49.035,premce3DEU_ses-01_part-01_label-phase1,2020.1.2,Win32,60,,,,0,,,,,,,stimuli/white_butterfly.png,stimuli/grey_butterfly.png,1,stimuli/blue_flower.png,stimuli/red_flower.png,stimuli/yellow_flower.png,stimuli/green_flower.png,left,stimuli/objects/mattress.jpg,1,1,stimuli/white_butterfly.png,,,,,,up,0,1.512,0,29,29,29,1,1,,,,,,,,,,,,,,,,,,
0,"[1,1,1,1,0,1,1,1,1,1,1,0,1,1,1,1,1,1,1,0,1,1,1,0,1,0,1,1,0]",,,,,,,,,11,2021-01-18_17h54.49.035,premce3DEU_ses-01_part-01_label-phase1,2020.1.2,Win32,60,,,,0,,,,,,,stimuli/white_butterfly.png,stimuli/grey_butterfly.png,1,stimuli/green_flower.png,stimuli/yellow_flower.png,stimuli/blue_flower.png,stimuli/red_flower.png,left,stimuli/objects/sheep.jpg,0,1,stimuli/white_butterfly.png,,,,,,down,0,0.728,0,30,30,30,1,1,,,,,,,,,,,,,,,,,,
0,"[1,1,1,1,0,1,1,1,1,1,1,0,1,1,1,1,1,1,1,0,1,1,1,0,1,0,1,1,0]",,,,,,,,,11,2021-01-18_17h54.49.035,premce3DEU_ses-01_part-01_label-phase1,2020.1.2,Win32,60,,,,0,,,,,,,stimuli/white_butterfly.png,stimuli/grey_butterfly.png,2,stimuli/blue_flower.png,stimuli/green_flower.png,stimuli/yellow_flower.png,stimuli/red_flower.png,left,stimuli/objects/smartboard.jpg,0,1,stimuli/grey_butterfly.png,,,,,,right,0,0.951,0,31,31,31,1,1,,,,,,,,,,,,,,,,,,
1,"[1,1,1,1,0,1,1,1,1,1,1,0,1,1,1,1,1,1,1,0,1,1,1,0,1,0,1,1,0]",,,,,,,,,11,2021-01-18_17h54.49.035,premce3DEU_ses-01_part-01_label-phase1,2020.1.2,Win32,60,,,,1,,,,,,,stimuli/white_butterfly.png,stimuli/grey_butterfly.png,1,stimuli/yellow_flower.png,stimuli/red_flower.png,stimuli/blue_flower.png,stimuli/green_flower.png,down,stimuli/objects/athleticsock.jpg,1,1,stimuli/white_butterfly.png,,,,,,down,1,0.994,0,32,32,32,1,1,,,,,,,,,,,,,,,,,,
0,"[1,1,1,1,0,1,1,1,1,1,1,0,1,1,1,1,1,1,1,0,1,1,1,0,1,0,1,1,0,1]",,,,,,,,,11,2021-01-18_17h54.49.035,premce3DEU_ses-01_part-01_label-phase1,2020.1.2,Win32,60,,,,1,,,,,,,stimuli/grey_butterfly.png,stimuli/white_butterfly.png,2,stimuli/blue_flower.png,stimuli/red_flower.png,stimuli/yellow_flower.png,stimuli/green_flower.png,up,stimuli/objects/swordfish.jpg,0,1,stimuli/white_butterfly.png,,,,,,left,0,0.761,0,33,33,33,1,1,,,,,,,,,,,,,,,,,,
1,"[1,1,1,1,0,1,1,1,1,1,1,0,1,1,1,1,1,1,1,0,1,1,1,0,1,0,1,1,0,1]",,,,,,,,,11,2021-01-18_17h54.49.035,premce3DEU_ses-01_part-01_label-phase1,2020.1.2,Win32,60,,,,1,,,,,,,stimuli/grey_butterfly.png,stimuli/white_butterfly.png,1,stimuli/blue_flower.png,stimuli/red_flower.png,stimuli/yellow_flower.png,stimuli/green_flower.png,up,stimuli/objects/bison.jpg,1,1,stimuli/grey_butterfly.png,,,,,,up,1,1.366,0,34,34,34,1,1,,,,,,,,,,,,,,,,,,
0,"[1,1,1,1,0,1,1,1,1,1,1,0,1,1,1,1,1,1,1,0,1,1,1,0,1,0,1,1,0,1,1]",,,,,,,,,11,2021-01-18_17h54.49.035,premce3DEU_ses-01_part-01_label-phase1,2020.1.2,Win32,60,,,,0,,,,,,,stimuli/grey_butterfly.png,stimuli/white_butterfly.png,1,stimuli/red_flower.png,stimuli/yellow_flower.png,stimuli/blue_flower.png,stimuli/green_flower.png,left,stimuli/objects/masquerademask01.jpg,1,1,stimuli/grey_butterfly.png,,,,,,down,0,1.06,0,35,35,35,1,1,,,,,,,,,,,,,,,,,,
1,"[1,1,1,1,0,1,1,1,1,1,1,0,1,1,1,1,1,1,1,0,1,1,1,0,1,0,1,1,0,1,1,0]",,,,,,,,,11,2021-01-18_17h54.49.035,premce3DEU_ses-01_part-01_label-phase1,2020.1.2,Win32,60,,,,1,,,,,,,stimuli/grey_butterfly.png,stimuli/white_butterfly.png,2,stimuli/red_flower.png,stimuli/yellow_flower.png,stimuli/green_flower.png,stimuli/blue_flower.png,right,stimuli/objects/licenseplate.jpg,1,1,stimuli/white_butterfly.png,,,,,,right,1,0.543,0,36,36,36,1,1,,,,,,,,,,,,,,,,,,
0,"[1,1,1,1,0,1,1,1,1,1,1,0,1,1,1,1,1,1,1,0,1,1,1,0,1,0,1,1,0,1,1,0,1]",,,,,,,,,11,2021-01-18_17h54.49.035,premce3DEU_ses-01_part-01_label-phase1,2020.1.2,Win32,60,,,,1,,,,,,,stimuli/grey_butterfly.png,stimuli/white_butterfly.png,1,stimuli/red_flower.png,stimuli/green_flower.png,stimuli/yellow_flower.png,stimuli/blue_flower.png,down,stimuli/objects/pokerchips.jpg,0,1,stimuli/grey_butterfly.png,,,,,,left,0,0.882,0,37,37,37,1,1,,,,,,,,,,,,,,,,,,
0,"[1,1,1,1,0,1,1,1,1,1,1,0,1,1,1,1,1,1,1,0,1,1,1,0,1,0,1,1,0,1,1,0,1]",,,,,,,,,11,2021-01-18_17h54.49.035,premce3DEU_ses-01_part-01_label-phase1,2020.1.2,Win32,60,,,,1,,,,,,,stimuli/grey_butterfly.png,stimuli/white_butterfly.png,2,stimuli/blue_flower.png,stimuli/yellow_flower.png,stimuli/green_flower.png,stimuli/red_flower.png,up,stimuli/objects/butterfly5.jpg,0,1,stimuli/white_butterfly.png,,,,,,left,0,0.692,0,38,38,38,1,1,,,,,,,,,,,,,,,,,,
1,"[1,1,1,1,0,1,1,1,1,1,1,0,1,1,1,1,1,1,1,0,1,1,1,0,1,0,1,1,0,1,1,0,1]",,,,,,,,,11,2021-01-18_17h54.49.035,premce3DEU_ses-01_part-01_label-phase1,2020.1.2,Win32,60,,,,1,,,,,,,stimuli/grey_butterfly.png,stimuli/white_butterfly.png,2,stimuli/yellow_flower.png,stimuli/blue_flower.png,stimuli/red_flower.png,stimuli/green_flower.png,up,stimuli/objects/ducttape.jpg,1,1,stimuli/white_butterfly.png,,,,,,up,1,1.095,0,39,39,39,1,1,,,,,,,,,,,,,,,,,,
1,"[1,1,1,1,0,1,1,1,1,1,1,0,1,1,1,1,1,1,1,0,1,1,1,0,1,0,1,1,0,1,1,0,1,1]",,,,,,,,,11,2021-01-18_17h54.49.035,premce3DEU_ses-01_part-01_label-phase1,2020.1.2,Win32,60,,,,1,,,,,,,stimuli/white_butterfly.png,stimuli/grey_butterfly.png,2,stimuli/green_flower.png,stimuli/blue_flower.png,stimuli/yellow_flower.png,stimuli/red_flower.png,right,stimuli/objects/well.jpg,1,1,stimuli/grey_butterfly.png,,,,,,right,1,1.35,0,40,40,40,1,1,,,,,,,,,,,,,,,,,,
1,"[1,1,1,1,0,1,1,1,1,1,1,0,1,1,1,1,1,1,1,0,1,1,1,0,1,0,1,1,0,1,1,0,1,1,1]",,,,,,,,,11,2021-01-18_17h54.49.035,premce3DEU_ses-01_part-01_label-phase1,2020.1.2,Win32,60,,,,1,,,,,,,stimuli/white_butterfly.png,stimuli/grey_butterfly.png,1,stimuli/blue_flower.png,stimuli/yellow_flower.png,stimuli/green_flower.png,stimuli/red_flower.png,left,stimuli/objects/blackolive.jpg,1,1,stimuli/white_butterfly.png,,,,,,left,1,0.534,0,41,41,41,1,1,,,,,,,,,,,,,,,,,,
,,,,,,,,,,11,2021-01-18_17h54.49.035,premce3DEU_ses-01_part-01_label-phase1,2020.1.2,Win32,60,,,,,,,,,,,,,,,,,,,,,,,,,,,,,,,,,,,,,n,21.341,0,0,0,0,1,,,,,,,,,,,
,,,,,,,,,,11,2021-01-18_17h54.49.035,premce3DEU_ses-01_part-01_label-phase1,2020.1.2,Win32,60,,,,,,,,,,,,,,,,,,3,,,,,,,,,,,,,,,,,,,,,,,,,,3,1,13.391,0,0,0,0,1,stimuli/white_butterfly.png,,
,,,,,,,,,,11,2021-01-18_17h54.49.035,premce3DEU_ses-01_part-01_label-phase1,2020.1.2,Win32,60,,,,,,,,,,,,,,,,,,1,,,,,,,,,,,,,,,,,,,,,,,,,,1,1,1.859,0,1,1,1,1,stimuli/grey_butterfly.png,,
,,,,,,,,,,11,2021-01-18_17h54.49.035,premce3DEU_ses-01_part-01_label-phase1,2020.1.2,Win32,60,,,,,,,,,,,,,,,,,,,,,,,,,,,,,,,,,,,,,,,,,,,,,,,,,,,,,space,5.024
