instructions_loop.thisRepN,instructions_loop.thisTrialN,instructions_loop.thisN,instructions_loop.thisIndex,instructions_loop.ran,text1,text2,text3,participant,date,expName,psychopyVersion,OS,frameRate,recog_resp.keys,recog_resp.rt,conf_resp.keys,conf_resp.rt,recog_loop.thisRepN,recog_loop.thisTrialN,recog_loop.thisN,recog_loop.thisIndex,recog_loop.ran,images,corr_ans,type,order,key_resp_break.keys,key_resp_break.rt,list_loop.thisRepN,list_loop.thisTrialN,list_loop.thisN,list_loop.thisIndex,list_loop.ran,recog_list
0,0,0,0,1,Willkommen zum letzten Teil des Experiments!,,Mit der LEERTASTE kannst du mit der Aufgabe fortfahren.,11,2021-01-19_17h59.37.822,premce3DEU_ses-02_part-02_label-phase2,2020.1.2,Win32,60,,,,,,,,,,,,,,,,,,,,,
0,1,1,1,1,,"Jetzt werden wir dir einige Bilder zeigen.

Bitte gib zu jedem Bild an, ob du du es im Verlauf des Experiments gesehen hast.

Drücke die LINKE PFEILTASTE für JA
Drücke die RECHTE PFEILTASTE für NEIN

",Mit der LEERTASTE kannst du mit der Aufgabe fortfahren.,11,2021-01-19_17h59.37.822,premce3DEU_ses-02_part-02_label-phase2,2020.1.2,Win32,60,,,,,,,,,,,,,,,,,,,,,
0,2,2,2,1,,"Anschließend bitten wir dich anzugeben wie sicher du dir bei deiner Wahl bist.

Bitte nutze die Zifferntasten von 1 bis 4 am oberen Ende deiner Tastatur um anzugeben, wie sicher du dir bei deiner Antwort bist.

Die Zahlen stehen für

1 = Sehr unsicher
2 = Unsicher
3 = Sicher
4 = Sehr sicher",Mit der LEERTASTE kannst du mit der Aufgabe fortfahren.,11,2021-01-19_17h59.37.822,premce3DEU_ses-02_part-02_label-phase2,2020.1.2,Win32,60,,,,,,,,,,,,,,,,,,,,,
,,,,,,,,11,2021-01-19_17h59.37.822,premce3DEU_ses-02_part-02_label-phase2,2020.1.2,Win32,60,right,8.026035,4,4.08497,0,0,0,113,1,stimuli/objects/bluejay.jpg,right,new,274,,,,,,,,
,,,,,,,,11,2021-01-19_17h59.37.822,premce3DEU_ses-02_part-02_label-phase2,2020.1.2,Win32,60,right,3.091125,2,1.638755,0,1,1,5,1,stimuli/objects/wheelchair.jpg,left,old,166,,,,,,,,
,,,,,,,,11,2021-01-19_17h59.37.822,premce3DEU_ses-02_part-02_label-phase2,2020.1.2,Win32,60,right,2.568385,2,1.79555,0,2,2,119,1,stimuli/objects/sandbarshark.jpg,right,new,280,,,,,,,,
,,,,,,,,11,2021-01-19_17h59.37.822,premce3DEU_ses-02_part-02_label-phase2,2020.1.2,Win32,60,left,1.1905,4,0.696845,0,3,3,102,1,stimuli/objects/baseballglove.jpg,left,old,263,,,,,,,,
,,,,,,,,11,2021-01-19_17h59.37.822,premce3DEU_ses-02_part-02_label-phase2,2020.1.2,Win32,60,right,1.465625,3,1.613755,0,4,4,157,1,stimuli/objects/eagle.jpg,right,new,318,,,,,,,,
,,,,,,,,11,2021-01-19_17h59.37.822,premce3DEU_ses-02_part-02_label-phase2,2020.1.2,Win32,60,left,1.45402,2,0.73256,0,5,5,35,1,stimuli/objects/xylophone.jpg,left,old,196,,,,,,,,
,,,,,,,,11,2021-01-19_17h59.37.822,premce3DEU_ses-02_part-02_label-phase2,2020.1.2,Win32,60,right,1.68319,2,0.51852,0,6,6,121,1,stimuli/objects/shield02.jpg,right,new,282,,,,,,,,
,,,,,,,,11,2021-01-19_17h59.37.822,premce3DEU_ses-02_part-02_label-phase2,2020.1.2,Win32,60,left,1.095035,3,0.343185,0,7,7,72,1,stimuli/objects/doghouse.jpg,left,old,233,,,,,,,,
,,,,,,,,11,2021-01-19_17h59.37.822,premce3DEU_ses-02_part-02_label-phase2,2020.1.2,Win32,60,left,0.947865,3,1.172435,0,8,8,2,1,stimuli/objects/moon.jpg,left,old,163,,,,,,,,
,,,,,,,,11,2021-01-19_17h59.37.822,premce3DEU_ses-02_part-02_label-phase2,2020.1.2,Win32,60,right,0.82656,2,0.637575,0,9,9,4,1,stimuli/objects/blender.jpg,left,old,165,,,,,,,,
,,,,,,,,11,2021-01-19_17h59.37.822,premce3DEU_ses-02_part-02_label-phase2,2020.1.2,Win32,60,right,1.53111,4,0.462,0,10,10,61,1,stimuli/objects/parrot01.jpg,right,new,222,,,,,,,,
,,,,,,,,11,2021-01-19_17h59.37.822,premce3DEU_ses-02_part-02_label-phase2,2020.1.2,Win32,60,right,1.553665,4,0.54854,0,11,11,136,1,stimuli/objects/mouse.jpg,right,new,297,,,,,,,,
,,,,,,,,11,2021-01-19_17h59.37.822,premce3DEU_ses-02_part-02_label-phase2,2020.1.2,Win32,60,right,2.425705,2,0.328835,0,12,12,73,1,stimuli/objects/barrel01.jpg,left,old,234,,,,,,,,
,,,,,,,,11,2021-01-19_17h59.37.822,premce3DEU_ses-02_part-02_label-phase2,2020.1.2,Win32,60,left,2.52676,2,0.30548,0,13,13,75,1,stimuli/objects/bookshelf.jpg,left,old,236,,,,,,,,
,,,,,,,,11,2021-01-19_17h59.37.822,premce3DEU_ses-02_part-02_label-phase2,2020.1.2,Win32,60,left,1.4309,2,0.52701,0,14,14,71,1,stimuli/objects/tennisracket.jpg,right,new,232,,,,,,,,
,,,,,,,,11,2021-01-19_17h59.37.822,premce3DEU_ses-02_part-02_label-phase2,2020.1.2,Win32,60,right,1.24909,2,0.71359,0,15,15,39,1,stimuli/objects/desktopcomputer.jpg,left,old,200,,,,,,,,
,,,,,,,,11,2021-01-19_17h59.37.822,premce3DEU_ses-02_part-02_label-phase2,2020.1.2,Win32,60,left,0.99174,4,0.339455,0,16,16,67,1,stimuli/objects/snowshovel.jpg,left,old,228,,,,,,,,
,,,,,,,,11,2021-01-19_17h59.37.822,premce3DEU_ses-02_part-02_label-phase2,2020.1.2,Win32,60,left,2.270145,2,0.338955,0,17,17,127,1,stimuli/objects/shelf.jpg,right,new,288,,,,,,,,
,,,,,,,,11,2021-01-19_17h59.37.822,premce3DEU_ses-02_part-02_label-phase2,2020.1.2,Win32,60,right,1.316825,3,1.72977,0,18,18,141,1,stimuli/objects/gong.jpg,left,old,302,,,,,,,,
,,,,,,,,11,2021-01-19_17h59.37.822,premce3DEU_ses-02_part-02_label-phase2,2020.1.2,Win32,60,right,1.214345,3,1.244715,0,19,19,65,1,stimuli/objects/spacerover.jpg,right,new,226,,,,,,,,
,,,,,,,,11,2021-01-19_17h59.37.822,premce3DEU_ses-02_part-02_label-phase2,2020.1.2,Win32,60,right,1.13752,2,0.340395,0,20,20,158,1,stimuli/objects/bowrake.jpg,right,new,319,,,,,,,,
,,,,,,,,11,2021-01-19_17h59.37.822,premce3DEU_ses-02_part-02_label-phase2,2020.1.2,Win32,60,left,0.929145,4,0.44301,0,21,21,44,1,stimuli/objects/donut.jpg,left,old,205,,,,,,,,
,,,,,,,,11,2021-01-19_17h59.37.822,premce3DEU_ses-02_part-02_label-phase2,2020.1.2,Win32,60,left,2.37154,2,0.42806,0,22,22,94,1,stimuli/objects/scorpion.jpg,right,new,255,,,,,,,,
,,,,,,,,11,2021-01-19_17h59.37.822,premce3DEU_ses-02_part-02_label-phase2,2020.1.2,Win32,60,right,2.94671,2,0.292755,0,23,23,64,1,stimuli/objects/trojanhorse.jpg,right,new,225,,,,,,,,
,,,,,,,,11,2021-01-19_17h59.37.822,premce3DEU_ses-02_part-02_label-phase2,2020.1.2,Win32,60,left,0.83311,4,0.293255,0,24,24,117,1,stimuli/objects/fingerprint.jpg,left,old,278,,,,,,,,
,,,,,,,,11,2021-01-19_17h59.37.822,premce3DEU_ses-02_part-02_label-phase2,2020.1.2,Win32,60,right,6.90924,2,0.29903,0,25,25,138,1,stimuli/objects/ladybug03.jpg,right,new,299,,,,,,,,
,,,,,,,,11,2021-01-19_17h59.37.822,premce3DEU_ses-02_part-02_label-phase2,2020.1.2,Win32,60,left,1.45997,2,1.35482,0,26,26,147,1,stimuli/objects/bleachers.jpg,left,old,308,,,,,,,,
,,,,,,,,11,2021-01-19_17h59.37.822,premce3DEU_ses-02_part-02_label-phase2,2020.1.2,Win32,60,left,1.00649,4,0.329015,0,27,27,90,1,stimuli/objects/battleaxe.jpg,left,old,251,,,,,,,,
,,,,,,,,11,2021-01-19_17h59.37.822,premce3DEU_ses-02_part-02_label-phase2,2020.1.2,Win32,60,right,2.391925,2,0.278245,0,28,28,132,1,stimuli/objects/windshieldwiper02.jpg,left,old,293,,,,,,,,
,,,,,,,,11,2021-01-19_17h59.37.822,premce3DEU_ses-02_part-02_label-phase2,2020.1.2,Win32,60,left,0.83411,4,0.30951,0,29,29,97,1,stimuli/objects/greywolf.jpg,left,old,258,,,,,,,,
,,,,,,,,11,2021-01-19_17h59.37.822,premce3DEU_ses-02_part-02_label-phase2,2020.1.2,Win32,60,right,0.954165,4,0.347665,0,30,30,76,1,stimuli/objects/statue.jpg,right,new,237,,,,,,,,
,,,,,,,,11,2021-01-19_17h59.37.822,premce3DEU_ses-02_part-02_label-phase2,2020.1.2,Win32,60,right,1.226525,4,0.23222,0,31,31,45,1,stimuli/objects/siamesecat.jpg,right,new,206,,,,,,,,
,,,,,,,,11,2021-01-19_17h59.37.822,premce3DEU_ses-02_part-02_label-phase2,2020.1.2,Win32,60,left,1.379715,3,0.255645,0,32,32,99,1,stimuli/objects/bacon.jpg,left,old,260,,,,,,,,
,,,,,,,,11,2021-01-19_17h59.37.822,premce3DEU_ses-02_part-02_label-phase2,2020.1.2,Win32,60,right,1.559245,3,1.25679,0,33,33,3,1,stimuli/objects/bathtub.jpg,left,old,164,,,,,,,,
,,,,,,,,11,2021-01-19_17h59.37.822,premce3DEU_ses-02_part-02_label-phase2,2020.1.2,Win32,60,right,1.51438,3,0.93161,0,34,34,86,1,stimuli/objects/trafficlight.jpg,left,old,247,,,,,,,,
,,,,,,,,11,2021-01-19_17h59.37.822,premce3DEU_ses-02_part-02_label-phase2,2020.1.2,Win32,60,right,1.233485,2,0.70256,0,35,35,66,1,stimuli/objects/tricornhat.jpg,right,new,227,,,,,,,,
,,,,,,,,11,2021-01-19_17h59.37.822,premce3DEU_ses-02_part-02_label-phase2,2020.1.2,Win32,60,right,1.073685,3,0.28689,0,36,36,129,1,stimuli/objects/escalator.jpg,left,old,290,,,,,,,,
,,,,,,,,11,2021-01-19_17h59.37.822,premce3DEU_ses-02_part-02_label-phase2,2020.1.2,Win32,60,right,1.382235,3,0.43616,0,37,37,83,1,stimuli/objects/recyclingbin.jpg,left,old,244,,,,,,,,
,,,,,,,,11,2021-01-19_17h59.37.822,premce3DEU_ses-02_part-02_label-phase2,2020.1.2,Win32,60,right,1.18433,3,1.79247,0,38,38,143,1,stimuli/objects/taxisign.jpg,right,new,304,,,,,,,,
,,,,,,,,11,2021-01-19_17h59.37.822,premce3DEU_ses-02_part-02_label-phase2,2020.1.2,Win32,60,left,1.26604,2,0.39078,0,39,39,108,1,stimuli/objects/cork02.jpg,left,old,269,,,,,,,,
,,,,,,,,11,2021-01-19_17h59.37.822,premce3DEU_ses-02_part-02_label-phase2,2020.1.2,Win32,60,left,1.131415,2,0.27929,0,40,40,140,1,stimuli/objects/treadmill.jpg,left,old,301,,,,,,,,
,,,,,,,,11,2021-01-19_17h59.37.822,premce3DEU_ses-02_part-02_label-phase2,2020.1.2,Win32,60,left,2.438495,2,0.283635,0,41,41,48,1,stimuli/objects/rubikcube.jpg,right,new,209,,,,,,,,
,,,,,,,,11,2021-01-19_17h59.37.822,premce3DEU_ses-02_part-02_label-phase2,2020.1.2,Win32,60,right,1.1659,3,0.575145,0,42,42,148,1,stimuli/objects/snowglobe.jpg,left,old,309,,,,,,,,
,,,,,,,,11,2021-01-19_17h59.37.822,premce3DEU_ses-02_part-02_label-phase2,2020.1.2,Win32,60,left,1.265005,2,0.2907,0,43,43,82,1,stimuli/objects/duck01.jpg,left,old,243,,,,,,,,
,,,,,,,,11,2021-01-19_17h59.37.822,premce3DEU_ses-02_part-02_label-phase2,2020.1.2,Win32,60,right,1.667505,2,0.44212,0,44,44,81,1,stimuli/objects/raccoon.jpg,right,new,242,,,,,,,,
,,,,,,,,11,2021-01-19_17h59.37.822,premce3DEU_ses-02_part-02_label-phase2,2020.1.2,Win32,60,left,0.901855,3,0.291495,0,45,45,79,1,stimuli/objects/polarbear.jpg,left,old,240,,,,,,,,
,,,,,,,,11,2021-01-19_17h59.37.822,premce3DEU_ses-02_part-02_label-phase2,2020.1.2,Win32,60,right,1.14512,3,0.90996,0,46,46,33,1,stimuli/objects/noparkingsign.jpg,right,new,194,,,,,,,,
,,,,,,,,11,2021-01-19_17h59.37.822,premce3DEU_ses-02_part-02_label-phase2,2020.1.2,Win32,60,right,1.183115,3,1.050525,0,47,47,27,1,stimuli/objects/tombstone.jpg,right,new,188,,,,,,,,
,,,,,,,,11,2021-01-19_17h59.37.822,premce3DEU_ses-02_part-02_label-phase2,2020.1.2,Win32,60,left,1.56347,2,0.25673,0,48,48,96,1,stimuli/objects/hockeystick.jpg,left,old,257,,,,,,,,
,,,,,,,,11,2021-01-19_17h59.37.822,premce3DEU_ses-02_part-02_label-phase2,2020.1.2,Win32,60,left,1.88068,3,5.480785,0,49,49,103,1,stimuli/objects/seagull.jpg,left,old,264,,,,,,,,
,,,,,,,,11,2021-01-19_17h59.37.822,premce3DEU_ses-02_part-02_label-phase2,2020.1.2,Win32,60,right,1.035305,2,0.33835,0,50,50,91,1,stimuli/objects/shed02.jpg,right,new,252,,,,,,,,
,,,,,,,,11,2021-01-19_17h59.37.822,premce3DEU_ses-02_part-02_label-phase2,2020.1.2,Win32,60,right,1.066765,3,0.82934,0,51,51,88,1,stimuli/objects/toilet.jpg,right,new,249,,,,,,,,
,,,,,,,,11,2021-01-19_17h59.37.822,premce3DEU_ses-02_part-02_label-phase2,2020.1.2,Win32,60,left,1.15291,3,0.3108,0,52,52,128,1,stimuli/objects/chime.jpg,left,old,289,,,,,,,,
,,,,,,,,11,2021-01-19_17h59.37.822,premce3DEU_ses-02_part-02_label-phase2,2020.1.2,Win32,60,left,2.864715,2,0.259305,0,53,53,49,1,stimuli/objects/surfboard.jpg,left,old,210,,,,,,,,
,,,,,,,,11,2021-01-19_17h59.37.822,premce3DEU_ses-02_part-02_label-phase2,2020.1.2,Win32,60,right,0.95223,3,0.66902,0,54,54,53,1,stimuli/objects/parachute.jpg,right,new,214,,,,,,,,
,,,,,,,,11,2021-01-19_17h59.37.822,premce3DEU_ses-02_part-02_label-phase2,2020.1.2,Win32,60,right,2.061335,2,0.740235,0,55,55,70,1,stimuli/objects/cormorant.jpg,right,new,231,,,,,,,,
,,,,,,,,11,2021-01-19_17h59.37.822,premce3DEU_ses-02_part-02_label-phase2,2020.1.2,Win32,60,right,1.48124,2,0.26187,0,56,56,30,1,stimuli/objects/key07.jpg,left,old,191,,,,,,,,
,,,,,,,,11,2021-01-19_17h59.37.822,premce3DEU_ses-02_part-02_label-phase2,2020.1.2,Win32,60,right,1.212835,3,0.84347,0,57,57,145,1,stimuli/objects/rooster.jpg,right,new,306,,,,,,,,
,,,,,,,,11,2021-01-19_17h59.37.822,premce3DEU_ses-02_part-02_label-phase2,2020.1.2,Win32,60,right,2.222245,2,0.2561,0,58,58,116,1,stimuli/objects/rollerblade.jpg,left,old,277,,,,,,,,
,,,,,,,,11,2021-01-19_17h59.37.822,premce3DEU_ses-02_part-02_label-phase2,2020.1.2,Win32,60,right,1.15738,3,0.582505,0,59,59,57,1,stimuli/objects/spaghetti01.jpg,right,new,218,,,,,,,,
,,,,,,,,11,2021-01-19_17h59.37.822,premce3DEU_ses-02_part-02_label-phase2,2020.1.2,Win32,60,right,1.09321,3,0.324055,0,60,60,12,1,stimuli/objects/musicsheet.jpg,right,new,173,,,,,,,,
,,,,,,,,11,2021-01-19_17h59.37.822,premce3DEU_ses-02_part-02_label-phase2,2020.1.2,Win32,60,right,1.038905,3,1.14181,0,61,61,118,1,stimuli/objects/wallclock.jpg,right,new,279,,,,,,,,
,,,,,,,,11,2021-01-19_17h59.37.822,premce3DEU_ses-02_part-02_label-phase2,2020.1.2,Win32,60,right,1.519615,3,0.701065,0,62,62,74,1,stimuli/objects/turnstile.jpg,right,new,235,,,,,,,,
,,,,,,,,11,2021-01-19_17h59.37.822,premce3DEU_ses-02_part-02_label-phase2,2020.1.2,Win32,60,right,1.10661,2,0.431555,0,63,63,150,1,stimuli/objects/strap.jpg,right,new,311,,,,,,,,
,,,,,,,,11,2021-01-19_17h59.37.822,premce3DEU_ses-02_part-02_label-phase2,2020.1.2,Win32,60,left,1.41586,2,1.030915,0,64,64,131,1,stimuli/objects/boxingglove01.jpg,right,new,292,,,,,,,,
,,,,,,,,11,2021-01-19_17h59.37.822,premce3DEU_ses-02_part-02_label-phase2,2020.1.2,Win32,60,left,0.911715,4,0.283955,0,65,65,87,1,stimuli/objects/chipmunk.jpg,left,old,248,,,,,,,,
,,,,,,,,11,2021-01-19_17h59.37.822,premce3DEU_ses-02_part-02_label-phase2,2020.1.2,Win32,60,right,1.47145,3,1.35535,0,66,66,10,1,stimuli/objects/spicerack.jpg,left,old,171,,,,,,,,
,,,,,,,,11,2021-01-19_17h59.37.822,premce3DEU_ses-02_part-02_label-phase2,2020.1.2,Win32,60,left,1.296995,3,0.25861,0,67,67,60,1,stimuli/objects/hammerheadshark.jpg,right,new,221,,,,,,,,
,,,,,,,,11,2021-01-19_17h59.37.822,premce3DEU_ses-02_part-02_label-phase2,2020.1.2,Win32,60,right,1.283605,2,1.265055,0,68,68,63,1,stimuli/objects/pin.jpg,right,new,224,,,,,,,,
,,,,,,,,11,2021-01-19_17h59.37.822,premce3DEU_ses-02_part-02_label-phase2,2020.1.2,Win32,60,right,2.1717,2,0.80845,0,69,69,95,1,stimuli/objects/sealion.jpg,right,new,256,,,,,,,,
,,,,,,,,11,2021-01-19_17h59.37.822,premce3DEU_ses-02_part-02_label-phase2,2020.1.2,Win32,60,right,1.207725,2,0.267915,0,70,70,120,1,stimuli/objects/airhockeytable.jpg,right,new,281,,,,,,,,
,,,,,,,,11,2021-01-19_17h59.37.822,premce3DEU_ses-02_part-02_label-phase2,2020.1.2,Win32,60,right,1.98289,2,0.415145,0,71,71,149,1,stimuli/objects/mortarandpestle.jpg,right,new,310,,,,,,,,
,,,,,,,,11,2021-01-19_17h59.37.822,premce3DEU_ses-02_part-02_label-phase2,2020.1.2,Win32,60,right,1.121735,3,0.281295,0,72,72,93,1,stimuli/objects/slushiemachine.jpg,right,new,254,,,,,,,,
,,,,,,,,11,2021-01-19_17h59.37.822,premce3DEU_ses-02_part-02_label-phase2,2020.1.2,Win32,60,right,2.038585,3,0.40204,0,73,73,23,1,stimuli/objects/graduationcap.jpg,right,new,184,,,,,,,,
,,,,,,,,11,2021-01-19_17h59.37.822,premce3DEU_ses-02_part-02_label-phase2,2020.1.2,Win32,60,left,1.01542,3,0.2979,0,74,74,156,1,stimuli/objects/shovel01.jpg,left,old,317,,,,,,,,
,,,,,,,,11,2021-01-19_17h59.37.822,premce3DEU_ses-02_part-02_label-phase2,2020.1.2,Win32,60,right,1.1081,3,0.307165,0,75,75,133,1,stimuli/objects/kiwi03.jpg,right,new,294,,,,,,,,
,,,,,,,,11,2021-01-19_17h59.37.822,premce3DEU_ses-02_part-02_label-phase2,2020.1.2,Win32,60,left,2.48001,2,0.278125,0,76,76,46,1,stimuli/objects/kneepad01c.jpg,right,new,207,,,,,,,,
,,,,,,,,11,2021-01-19_17h59.37.822,premce3DEU_ses-02_part-02_label-phase2,2020.1.2,Win32,60,right,3.32901,2,0.2,0,77,77,124,1,stimuli/objects/swing.jpg,right,new,285,,,,,,,,
,,,,,,,,11,2021-01-19_17h59.37.822,premce3DEU_ses-02_part-02_label-phase2,2020.1.2,Win32,60,left,0.94606,4,0.34431,0,78,78,47,1,stimuli/objects/candycane01a.jpg,left,old,208,,,,,,,,
,,,,,,,,11,2021-01-19_17h59.37.822,premce3DEU_ses-02_part-02_label-phase2,2020.1.2,Win32,60,right,1.29182,3,2.15398,0,79,79,32,1,stimuli/objects/cross01.jpg,right,new,193,,,,,,,,
,,,,,,,,11,2021-01-19_17h59.37.822,premce3DEU_ses-02_part-02_label-phase2,2020.1.2,Win32,60,left,1.06521,4,0.285805,0,80,80,16,1,stimuli/objects/dartboard.jpg,left,old,177,,,,,,,,
,,,,,,,,11,2021-01-19_17h59.37.822,premce3DEU_ses-02_part-02_label-phase2,2020.1.2,Win32,60,left,2.09055,2,0.310755,0,81,81,37,1,stimuli/objects/football.jpg,left,old,198,,,,,,,,
,,,,,,,,11,2021-01-19_17h59.37.822,premce3DEU_ses-02_part-02_label-phase2,2020.1.2,Win32,60,right,1.02275,4,0.823225,0,82,82,122,1,stimuli/objects/lip.jpg,right,new,283,,,,,,,,
,,,,,,,,11,2021-01-19_17h59.37.822,premce3DEU_ses-02_part-02_label-phase2,2020.1.2,Win32,60,right,2.308815,4,0.325755,0,83,83,20,1,stimuli/objects/toysoldier01b.jpg,right,new,181,,,,,,,,
,,,,,,,,11,2021-01-19_17h59.37.822,premce3DEU_ses-02_part-02_label-phase2,2020.1.2,Win32,60,left,5.48771,2,0.24474,0,84,84,101,1,stimuli/objects/microphone01.jpg,right,new,262,,,,,,,,
,,,,,,,,11,2021-01-19_17h59.37.822,premce3DEU_ses-02_part-02_label-phase2,2020.1.2,Win32,60,right,1.540035,2,1.018825,0,85,85,13,1,stimuli/objects/sailboat.jpg,left,old,174,,,,,,,,
,,,,,,,,11,2021-01-19_17h59.37.822,premce3DEU_ses-02_part-02_label-phase2,2020.1.2,Win32,60,left,1.85023,2,0.272685,0,86,86,85,1,stimuli/objects/skiboot01a.jpg,left,old,246,,,,,,,,
,,,,,,,,11,2021-01-19_17h59.37.822,premce3DEU_ses-02_part-02_label-phase2,2020.1.2,Win32,60,left,1.41471,2,0.190135,0,87,87,152,1,stimuli/objects/harmonica.jpg,right,new,313,,,,,,,,
,,,,,,,,11,2021-01-19_17h59.37.822,premce3DEU_ses-02_part-02_label-phase2,2020.1.2,Win32,60,left,0.898275,4,0.303485,0,88,88,56,1,stimuli/objects/toyanimal05.jpg,left,old,217,,,,,,,,
,,,,,,,,11,2021-01-19_17h59.37.822,premce3DEU_ses-02_part-02_label-phase2,2020.1.2,Win32,60,right,2.21283,2,0.744805,0,89,89,40,1,stimuli/objects/beehive.jpg,right,new,201,,,,,,,,
,,,,,,,,11,2021-01-19_17h59.37.822,premce3DEU_ses-02_part-02_label-phase2,2020.1.2,Win32,60,right,1.23929,3,1.267035,0,90,90,21,1,stimuli/objects/gorilla.jpg,right,new,182,,,,,,,,
,,,,,,,,11,2021-01-19_17h59.37.822,premce3DEU_ses-02_part-02_label-phase2,2020.1.2,Win32,60,left,0.98308,4,0.280745,0,91,91,7,1,stimuli/objects/bolt01a.jpg,left,old,168,,,,,,,,
,,,,,,,,11,2021-01-19_17h59.37.822,premce3DEU_ses-02_part-02_label-phase2,2020.1.2,Win32,60,right,1.624535,4,1.5944,0,92,92,137,1,stimuli/objects/waterfall.jpg,right,new,298,,,,,,,,
,,,,,,,,11,2021-01-19_17h59.37.822,premce3DEU_ses-02_part-02_label-phase2,2020.1.2,Win32,60,left,1.03707,3,0.28297,0,93,93,146,1,stimuli/objects/tie02.jpg,left,old,307,,,,,,,,
,,,,,,,,11,2021-01-19_17h59.37.822,premce3DEU_ses-02_part-02_label-phase2,2020.1.2,Win32,60,left,2.26166,2,0.29846,0,94,94,25,1,stimuli/objects/scooter.jpg,right,new,186,,,,,,,,
,,,,,,,,11,2021-01-19_17h59.37.822,premce3DEU_ses-02_part-02_label-phase2,2020.1.2,Win32,60,right,1.478275,2,0.98472,0,95,95,29,1,stimuli/objects/steeringwheel.jpg,right,new,190,,,,,,,,
,,,,,,,,11,2021-01-19_17h59.37.822,premce3DEU_ses-02_part-02_label-phase2,2020.1.2,Win32,60,left,1.0069,4,0.29863,0,96,96,18,1,stimuli/objects/showerhead01.jpg,left,old,179,,,,,,,,
,,,,,,,,11,2021-01-19_17h59.37.822,premce3DEU_ses-02_part-02_label-phase2,2020.1.2,Win32,60,right,1.49898,2,0.269085,0,97,97,114,1,stimuli/objects/cymbal.jpg,left,old,275,,,,,,,,
,,,,,,,,11,2021-01-19_17h59.37.822,premce3DEU_ses-02_part-02_label-phase2,2020.1.2,Win32,60,right,1.65425,2,0.61266,0,98,98,51,1,stimuli/objects/kangaroo01.jpg,right,new,212,,,,,,,,
,,,,,,,,11,2021-01-19_17h59.37.822,premce3DEU_ses-02_part-02_label-phase2,2020.1.2,Win32,60,left,1.661385,3,1.8489,0,99,99,106,1,stimuli/objects/squirrel.jpg,right,new,267,,,,,,,,
,,,,,,,,11,2021-01-19_17h59.37.822,premce3DEU_ses-02_part-02_label-phase2,2020.1.2,Win32,60,right,2.957585,2,0.11487,0,100,100,107,1,stimuli/objects/tambourine03.jpg,right,new,268,,,,,,,,
,,,,,,,,11,2021-01-19_17h59.37.822,premce3DEU_ses-02_part-02_label-phase2,2020.1.2,Win32,60,right,1.35899,3,1.290025,0,101,101,31,1,stimuli/objects/horseshoe.jpg,right,new,192,,,,,,,,
,,,,,,,,11,2021-01-19_17h59.37.822,premce3DEU_ses-02_part-02_label-phase2,2020.1.2,Win32,60,right,1.46348,2,0.363875,0,102,102,58,1,stimuli/objects/tricycle.jpg,left,old,219,,,,,,,,
,,,,,,,,11,2021-01-19_17h59.37.822,premce3DEU_ses-02_part-02_label-phase2,2020.1.2,Win32,60,right,1.88599,2,0.235655,0,103,103,104,1,stimuli/objects/rockingchair.jpg,left,old,265,,,,,,,,
,,,,,,,,11,2021-01-19_17h59.37.822,premce3DEU_ses-02_part-02_label-phase2,2020.1.2,Win32,60,left,1.960765,4,0.25819,0,104,104,112,1,stimuli/objects/hotdog.jpg,left,old,273,,,,,,,,
,,,,,,,,11,2021-01-19_17h59.37.822,premce3DEU_ses-02_part-02_label-phase2,2020.1.2,Win32,60,right,1.69432,2,0.393905,0,105,105,105,1,stimuli/objects/beerbottle.jpg,left,old,266,,,,,,,,
,,,,,,,,11,2021-01-19_17h59.37.822,premce3DEU_ses-02_part-02_label-phase2,2020.1.2,Win32,60,right,1.22958,3,0.822305,0,106,106,144,1,stimuli/objects/walkietalkie.jpg,right,new,305,,,,,,,,
,,,,,,,,11,2021-01-19_17h59.37.822,premce3DEU_ses-02_part-02_label-phase2,2020.1.2,Win32,60,left,0.947995,4,0.29436,0,107,107,92,1,stimuli/objects/mirror02.jpg,left,old,253,,,,,,,,
,,,,,,,,11,2021-01-19_17h59.37.822,premce3DEU_ses-02_part-02_label-phase2,2020.1.2,Win32,60,left,5.67295,2,0.330455,0,108,108,123,1,stimuli/objects/ironingboard01.jpg,left,old,284,,,,,,,,
,,,,,,,,11,2021-01-19_17h59.37.822,premce3DEU_ses-02_part-02_label-phase2,2020.1.2,Win32,60,right,0.995925,2,1.13011,0,109,109,153,1,stimuli/objects/fluorescentlightbulb.jpg,left,old,314,,,,,,,,
,,,,,,,,11,2021-01-19_17h59.37.822,premce3DEU_ses-02_part-02_label-phase2,2020.1.2,Win32,60,left,1.541205,4,0.272705,0,110,110,125,1,stimuli/objects/whiteout.jpg,left,old,286,,,,,,,,
,,,,,,,,11,2021-01-19_17h59.37.822,premce3DEU_ses-02_part-02_label-phase2,2020.1.2,Win32,60,left,1.345685,2,0.279025,0,111,111,68,1,stimuli/objects/drumset.jpg,right,new,229,,,,,,,,
,,,,,,,,11,2021-01-19_17h59.37.822,premce3DEU_ses-02_part-02_label-phase2,2020.1.2,Win32,60,right,0.91931,3,0.49191,0,112,112,28,1,stimuli/objects/car.jpg,left,old,189,,,,,,,,
,,,,,,,,11,2021-01-19_17h59.37.822,premce3DEU_ses-02_part-02_label-phase2,2020.1.2,Win32,60,right,0.961275,4,0.30717,0,113,113,89,1,stimuli/objects/cruiseship.jpg,left,old,250,,,,,,,,
,,,,,,,,11,2021-01-19_17h59.37.822,premce3DEU_ses-02_part-02_label-phase2,2020.1.2,Win32,60,left,1.223705,3,1.273765,0,114,114,22,1,stimuli/objects/crab01.jpg,left,old,183,,,,,,,,
,,,,,,,,11,2021-01-19_17h59.37.822,premce3DEU_ses-02_part-02_label-phase2,2020.1.2,Win32,60,left,1.178155,2,0.67228,0,115,115,80,1,stimuli/objects/floorlamp.jpg,right,new,241,,,,,,,,
,,,,,,,,11,2021-01-19_17h59.37.822,premce3DEU_ses-02_part-02_label-phase2,2020.1.2,Win32,60,right,1.0412,2,1.328315,0,116,116,134,1,stimuli/objects/bikelock.jpg,right,new,295,,,,,,,,
,,,,,,,,11,2021-01-19_17h59.37.822,premce3DEU_ses-02_part-02_label-phase2,2020.1.2,Win32,60,right,1.060255,4,0.31382,0,117,117,55,1,stimuli/objects/dogsled.jpg,left,old,216,,,,,,,,
,,,,,,,,11,2021-01-19_17h59.37.822,premce3DEU_ses-02_part-02_label-phase2,2020.1.2,Win32,60,left,1.11821,4,0.76007,0,118,118,1,1,stimuli/objects/tent.jpg,left,old,162,,,,,,,,
,,,,,,,,11,2021-01-19_17h59.37.822,premce3DEU_ses-02_part-02_label-phase2,2020.1.2,Win32,60,left,1.43614,4,0.829585,0,119,119,78,1,stimuli/objects/hockeypuck.jpg,left,old,239,,,,,,,,
,,,,,,,,11,2021-01-19_17h59.37.822,premce3DEU_ses-02_part-02_label-phase2,2020.1.2,Win32,60,right,1.164485,2,1.944855,0,120,120,50,1,stimuli/objects/cowbell.jpg,right,new,211,,,,,,,,
,,,,,,,,11,2021-01-19_17h59.37.822,premce3DEU_ses-02_part-02_label-phase2,2020.1.2,Win32,60,left,1.98109,3,0.63984,0,121,121,59,1,stimuli/objects/nosmokingsign.jpg,right,new,220,,,,,,,,
,,,,,,,,11,2021-01-19_17h59.37.822,premce3DEU_ses-02_part-02_label-phase2,2020.1.2,Win32,60,left,1.49183,2,1.242065,0,122,122,77,1,stimuli/objects/electricguitar01.jpg,left,old,238,,,,,,,,
,,,,,,,,11,2021-01-19_17h59.37.822,premce3DEU_ses-02_part-02_label-phase2,2020.1.2,Win32,60,right,0.946675,3,0.447195,0,123,123,100,1,stimuli/objects/doubledoors.jpg,left,old,261,,,,,,,,
,,,,,,,,11,2021-01-19_17h59.37.822,premce3DEU_ses-02_part-02_label-phase2,2020.1.2,Win32,60,left,0.99751,2,0.293215,0,124,124,42,1,stimuli/objects/asianelephant.jpg,left,old,203,,,,,,,,
,,,,,,,,11,2021-01-19_17h59.37.822,premce3DEU_ses-02_part-02_label-phase2,2020.1.2,Win32,60,left,0.92467,4,0.292985,0,125,125,111,1,stimuli/objects/jellybean.jpg,left,old,272,,,,,,,,
,,,,,,,,11,2021-01-19_17h59.37.822,premce3DEU_ses-02_part-02_label-phase2,2020.1.2,Win32,60,left,3.567705,2,0.29804,0,126,126,14,1,stimuli/objects/ipad02.jpg,left,old,175,,,,,,,,
,,,,,,,,11,2021-01-19_17h59.37.822,premce3DEU_ses-02_part-02_label-phase2,2020.1.2,Win32,60,right,8.750525,2,0.385195,0,127,127,26,1,stimuli/objects/schoolbus.jpg,right,new,187,,,,,,,,
,,,,,,,,11,2021-01-19_17h59.37.822,premce3DEU_ses-02_part-02_label-phase2,2020.1.2,Win32,60,right,5.75082,4,1.568705,0,128,128,109,1,stimuli/objects/spiderweb.jpg,right,new,270,,,,,,,,
,,,,,,,,11,2021-01-19_17h59.37.822,premce3DEU_ses-02_part-02_label-phase2,2020.1.2,Win32,60,right,1.81108,2,2.275955,0,129,129,135,1,stimuli/objects/penguin.jpg,right,new,296,,,,,,,,
,,,,,,,,11,2021-01-19_17h59.37.822,premce3DEU_ses-02_part-02_label-phase2,2020.1.2,Win32,60,right,2.219625,2,2.1839,0,130,130,19,1,stimuli/objects/zipper.jpg,right,new,180,,,,,,,,
,,,,,,,,11,2021-01-19_17h59.37.822,premce3DEU_ses-02_part-02_label-phase2,2020.1.2,Win32,60,right,1.27016,4,0.659505,0,131,131,0,1,stimuli/objects/hulahoop.jpg,left,old,161,,,,,,,,
,,,,,,,,11,2021-01-19_17h59.37.822,premce3DEU_ses-02_part-02_label-phase2,2020.1.2,Win32,60,right,1.302395,3,0.41411,0,132,132,9,1,stimuli/objects/flag.jpg,right,new,170,,,,,,,,
,,,,,,,,11,2021-01-19_17h59.37.822,premce3DEU_ses-02_part-02_label-phase2,2020.1.2,Win32,60,left,2.552175,2,0.30741,0,133,133,115,1,stimuli/objects/witchhat.jpg,left,old,276,,,,,,,,
,,,,,,,,11,2021-01-19_17h59.37.822,premce3DEU_ses-02_part-02_label-phase2,2020.1.2,Win32,60,left,6.255745,2,0.21531,0,134,134,15,1,stimuli/objects/stool01.jpg,left,old,176,,,,,,,,
,,,,,,,,11,2021-01-19_17h59.37.822,premce3DEU_ses-02_part-02_label-phase2,2020.1.2,Win32,60,right,1.24769,2,1.350095,0,135,135,38,1,stimuli/objects/bread.jpg,right,new,199,,,,,,,,
,,,,,,,,11,2021-01-19_17h59.37.822,premce3DEU_ses-02_part-02_label-phase2,2020.1.2,Win32,60,right,2.59996,3,0.299235,0,136,136,126,1,stimuli/objects/birdfeeder.jpg,left,old,287,,,,,,,,
,,,,,,,,11,2021-01-19_17h59.37.822,premce3DEU_ses-02_part-02_label-phase2,2020.1.2,Win32,60,right,1.044175,4,0.303765,0,137,137,6,1,stimuli/objects/popcorn.jpg,right,new,167,,,,,,,,
,,,,,,,,11,2021-01-19_17h59.37.822,premce3DEU_ses-02_part-02_label-phase2,2020.1.2,Win32,60,right,2.93739,1,0.31162,0,138,138,34,1,stimuli/objects/shelves.jpg,left,old,195,,,,,,,,
,,,,,,,,11,2021-01-19_17h59.37.822,premce3DEU_ses-02_part-02_label-phase2,2020.1.2,Win32,60,left,1.30012,3,0.44925,0,139,139,41,1,stimuli/objects/zebra.jpg,left,old,202,,,,,,,,
,,,,,,,,11,2021-01-19_17h59.37.822,premce3DEU_ses-02_part-02_label-phase2,2020.1.2,Win32,60,right,1.074615,3,0.743755,0,140,140,69,1,stimuli/objects/bumpercar.jpg,right,new,230,,,,,,,,
,,,,,,,,11,2021-01-19_17h59.37.822,premce3DEU_ses-02_part-02_label-phase2,2020.1.2,Win32,60,right,1.3707,3,0.443785,0,141,141,130,1,stimuli/objects/pirateflag.jpg,left,old,291,,,,,,,,
,,,,,,,,11,2021-01-19_17h59.37.822,premce3DEU_ses-02_part-02_label-phase2,2020.1.2,Win32,60,left,1.151625,3,0.261895,0,142,142,155,1,stimuli/objects/fishingrod.jpg,left,old,316,,,,,,,,
,,,,,,,,11,2021-01-19_17h59.37.822,premce3DEU_ses-02_part-02_label-phase2,2020.1.2,Win32,60,right,1.065865,2,0.231845,0,143,143,84,1,stimuli/objects/carbattery.jpg,right,new,245,,,,,,,,
,,,,,,,,11,2021-01-19_17h59.37.822,premce3DEU_ses-02_part-02_label-phase2,2020.1.2,Win32,60,right,1.21423,2,1.531575,0,144,144,17,1,stimuli/objects/saltshaker03a.jpg,right,new,178,,,,,,,,
,,,,,,,,11,2021-01-19_17h59.37.822,premce3DEU_ses-02_part-02_label-phase2,2020.1.2,Win32,60,left,2.52037,2,0.31444,0,145,145,151,1,stimuli/objects/jellyfish.jpg,left,old,312,,,,,,,,
,,,,,,,,11,2021-01-19_17h59.37.822,premce3DEU_ses-02_part-02_label-phase2,2020.1.2,Win32,60,left,1.040805,3,0.371015,0,146,146,98,1,stimuli/objects/cashregister01.jpg,left,old,259,,,,,,,,
,,,,,,,,11,2021-01-19_17h59.37.822,premce3DEU_ses-02_part-02_label-phase2,2020.1.2,Win32,60,left,1.04309,4,0.28067,0,147,147,36,1,stimuli/objects/sandcastle.jpg,left,old,197,,,,,,,,
,,,,,,,,11,2021-01-19_17h59.37.822,premce3DEU_ses-02_part-02_label-phase2,2020.1.2,Win32,60,right,1.111915,3,0.264685,0,148,148,62,1,stimuli/objects/painting.jpg,right,new,223,,,,,,,,
,,,,,,,,11,2021-01-19_17h59.37.822,premce3DEU_ses-02_part-02_label-phase2,2020.1.2,Win32,60,right,0.99041,3,0.38672,0,149,149,154,1,stimuli/objects/frisbee.jpg,left,old,315,,,,,,,,
,,,,,,,,11,2021-01-19_17h59.37.822,premce3DEU_ses-02_part-02_label-phase2,2020.1.2,Win32,60,right,1.329525,3,0.29338,0,150,150,43,1,stimuli/objects/poolcue.jpg,right,new,204,,,,,,,,
,,,,,,,,11,2021-01-19_17h59.37.822,premce3DEU_ses-02_part-02_label-phase2,2020.1.2,Win32,60,left,2.405525,2,0.29708,0,151,151,8,1,stimuli/objects/cloud.jpg,left,old,169,,,,,,,,
,,,,,,,,11,2021-01-19_17h59.37.822,premce3DEU_ses-02_part-02_label-phase2,2020.1.2,Win32,60,left,1.143965,4,0.311035,0,152,152,24,1,stimuli/objects/jaguar.jpg,left,old,185,,,,,,,,
,,,,,,,,11,2021-01-19_17h59.37.822,premce3DEU_ses-02_part-02_label-phase2,2020.1.2,Win32,60,right,1.479805,2,0.30809,0,153,153,52,1,stimuli/objects/acorn.jpg,left,old,213,,,,,,,,
,,,,,,,,11,2021-01-19_17h59.37.822,premce3DEU_ses-02_part-02_label-phase2,2020.1.2,Win32,60,right,1.386,1,0.64894,0,154,154,54,1,stimuli/objects/acousticguitar02.jpg,right,new,215,,,,,,,,
,,,,,,,,11,2021-01-19_17h59.37.822,premce3DEU_ses-02_part-02_label-phase2,2020.1.2,Win32,60,left,0.941355,3,0.742295,0,155,155,159,1,stimuli/objects/footballhelmet.jpg,left,old,320,,,,,,,,
,,,,,,,,11,2021-01-19_17h59.37.822,premce3DEU_ses-02_part-02_label-phase2,2020.1.2,Win32,60,left,0.93019,2,0.42418,0,156,156,11,1,stimuli/objects/dolphin01.jpg,left,old,172,,,,,,,,
,,,,,,,,11,2021-01-19_17h59.37.822,premce3DEU_ses-02_part-02_label-phase2,2020.1.2,Win32,60,right,0.97103,3,0.28022,0,157,157,139,1,stimuli/objects/locomotive.jpg,left,old,300,,,,,,,,
,,,,,,,,11,2021-01-19_17h59.37.822,premce3DEU_ses-02_part-02_label-phase2,2020.1.2,Win32,60,right,1.482735,3,0.616605,0,158,158,142,1,stimuli/objects/lightswitch01.jpg,left,old,303,,,,,,,,
,,,,,,,,11,2021-01-19_17h59.37.822,premce3DEU_ses-02_part-02_label-phase2,2020.1.2,Win32,60,right,1.04762,4,0.47419,0,159,159,110,1,stimuli/objects/funnel.jpg,right,new,271,,,,,,,,
,,,,,,,,11,2021-01-19_17h59.37.822,premce3DEU_ses-02_part-02_label-phase2,2020.1.2,Win32,60,,,,,,,,,,,,,,space,1.64517,0,0,0,1,1,ImagesforRecog2.csv
,,,,,,,,11,2021-01-19_17h59.37.822,premce3DEU_ses-02_part-02_label-phase2,2020.1.2,Win32,60,left,2.03294,3,1.42151,0,0,0,139,1,stimuli/objects/safe.jpg,right,new,140,,,,,,,,
,,,,,,,,11,2021-01-19_17h59.37.822,premce3DEU_ses-02_part-02_label-phase2,2020.1.2,Win32,60,right,3.236675,2,0.27979,0,1,1,135,1,stimuli/objects/basketball01.jpg,left,old,136,,,,,,,,
,,,,,,,,11,2021-01-19_17h59.37.822,premce3DEU_ses-02_part-02_label-phase2,2020.1.2,Win32,60,right,1.268015,3,0.750985,0,2,2,100,1,stimuli/objects/macaroni01.jpg,right,new,101,,,,,,,,
,,,,,,,,11,2021-01-19_17h59.37.822,premce3DEU_ses-02_part-02_label-phase2,2020.1.2,Win32,60,left,1.39664,1,0.499125,0,3,3,74,1,stimuli/objects/windturbine.jpg,left,old,75,,,,,,,,
,,,,,,,,11,2021-01-19_17h59.37.822,premce3DEU_ses-02_part-02_label-phase2,2020.1.2,Win32,60,right,1.115795,2,0.57107,0,4,4,43,1,stimuli/objects/ostrich.jpg,right,new,44,,,,,,,,
,,,,,,,,11,2021-01-19_17h59.37.822,premce3DEU_ses-02_part-02_label-phase2,2020.1.2,Win32,60,right,1.301365,2,0.91036,0,5,5,130,1,stimuli/objects/tulip02.jpg,left,old,131,,,,,,,,
,,,,,,,,11,2021-01-19_17h59.37.822,premce3DEU_ses-02_part-02_label-phase2,2020.1.2,Win32,60,right,1.63402,1,0.865005,0,6,6,26,1,stimuli/objects/sledgehammer.jpg,right,new,27,,,,,,,,
,,,,,,,,11,2021-01-19_17h59.37.822,premce3DEU_ses-02_part-02_label-phase2,2020.1.2,Win32,60,left,8.450225,1,0.26103,0,7,7,47,1,stimuli/objects/stepladder.jpg,left,old,48,,,,,,,,
,,,,,,,,11,2021-01-19_17h59.37.822,premce3DEU_ses-02_part-02_label-phase2,2020.1.2,Win32,60,right,0.92613,4,0.685925,0,8,8,76,1,stimuli/objects/morningstar.jpg,right,new,77,,,,,,,,
,,,,,,,,11,2021-01-19_17h59.37.822,premce3DEU_ses-02_part-02_label-phase2,2020.1.2,Win32,60,right,1.114265,3,0.52436,0,9,9,8,1,stimuli/objects/englishcucumber.jpg,right,new,9,,,,,,,,
,,,,,,,,11,2021-01-19_17h59.37.822,premce3DEU_ses-02_part-02_label-phase2,2020.1.2,Win32,60,left,1.082085,3,0.52895,0,10,10,16,1,stimuli/objects/cactus.jpg,left,old,17,,,,,,,,
,,,,,,,,11,2021-01-19_17h59.37.822,premce3DEU_ses-02_part-02_label-phase2,2020.1.2,Win32,60,right,0.78042,3,1.43178,0,11,11,23,1,stimuli/objects/lollipop04.jpg,right,new,24,,,,,,,,
,,,,,,,,11,2021-01-19_17h59.37.822,premce3DEU_ses-02_part-02_label-phase2,2020.1.2,Win32,60,right,0.974925,4,0.560105,0,12,12,80,1,stimuli/objects/tree.jpg,right,new,81,,,,,,,,
,,,,,,,,11,2021-01-19_17h59.37.822,premce3DEU_ses-02_part-02_label-phase2,2020.1.2,Win32,60,left,1.456825,2,0.62584,0,13,13,116,1,stimuli/objects/toucan.jpg,right,new,117,,,,,,,,
,,,,,,,,11,2021-01-19_17h59.37.822,premce3DEU_ses-02_part-02_label-phase2,2020.1.2,Win32,60,right,1.858155,2,0.295705,0,14,14,118,1,stimuli/objects/microwave.jpg,left,old,119,,,,,,,,
,,,,,,,,11,2021-01-19_17h59.37.822,premce3DEU_ses-02_part-02_label-phase2,2020.1.2,Win32,60,right,0.869455,3,2.518535,0,15,15,2,1,stimuli/objects/table01.jpg,left,old,3,,,,,,,,
,,,,,,,,11,2021-01-19_17h59.37.822,premce3DEU_ses-02_part-02_label-phase2,2020.1.2,Win32,60,right,1.33562,2,0.29144,0,16,16,87,1,stimuli/objects/filingcabinet.jpg,left,old,88,,,,,,,,
,,,,,,,,11,2021-01-19_17h59.37.822,premce3DEU_ses-02_part-02_label-phase2,2020.1.2,Win32,60,left,0.89113,4,0.309115,0,17,17,104,1,stimuli/objects/porcupine.jpg,left,old,105,,,,,,,,
,,,,,,,,11,2021-01-19_17h59.37.822,premce3DEU_ses-02_part-02_label-phase2,2020.1.2,Win32,60,right,0.938505,2,2.035325,0,18,18,146,1,stimuli/objects/ant.jpg,right,new,147,,,,,,,,
,,,,,,,,11,2021-01-19_17h59.37.822,premce3DEU_ses-02_part-02_label-phase2,2020.1.2,Win32,60,right,0.901755,3,0.71324,0,19,19,145,1,stimuli/objects/church.jpg,right,new,146,,,,,,,,
,,,,,,,,11,2021-01-19_17h59.37.822,premce3DEU_ses-02_part-02_label-phase2,2020.1.2,Win32,60,right,0.931445,3,0.44627,0,20,20,106,1,stimuli/objects/helicopter.jpg,right,new,107,,,,,,,,
,,,,,,,,11,2021-01-19_17h59.37.822,premce3DEU_ses-02_part-02_label-phase2,2020.1.2,Win32,60,left,1.610105,4,0.280955,0,21,21,78,1,stimuli/objects/monarchbutterfly.jpg,left,old,79,,,,,,,,
,,,,,,,,11,2021-01-19_17h59.37.822,premce3DEU_ses-02_part-02_label-phase2,2020.1.2,Win32,60,left,0.95561,3,0.474325,0,22,22,58,1,stimuli/objects/beaver.jpg,left,old,59,,,,,,,,
,,,,,,,,11,2021-01-19_17h59.37.822,premce3DEU_ses-02_part-02_label-phase2,2020.1.2,Win32,60,right,0.81974,3,0.858365,0,23,23,38,1,stimuli/objects/pig.jpg,right,new,39,,,,,,,,
,,,,,,,,11,2021-01-19_17h59.37.822,premce3DEU_ses-02_part-02_label-phase2,2020.1.2,Win32,60,left,0.81123,4,0.235005,0,24,24,82,1,stimuli/objects/crown.jpg,left,old,83,,,,,,,,
,,,,,,,,11,2021-01-19_17h59.37.822,premce3DEU_ses-02_part-02_label-phase2,2020.1.2,Win32,60,left,0.76577,4,0.265925,0,25,25,6,1,stimuli/objects/pumpkin.jpg,left,old,7,,,,,,,,
,,,,,,,,11,2021-01-19_17h59.37.822,premce3DEU_ses-02_part-02_label-phase2,2020.1.2,Win32,60,left,0.98782,3,0.246515,0,26,26,149,1,stimuli/objects/dolly01.jpg,right,new,150,,,,,,,,
,,,,,,,,11,2021-01-19_17h59.37.822,premce3DEU_ses-02_part-02_label-phase2,2020.1.2,Win32,60,right,0.778775,3,1.747725,0,27,27,67,1,stimuli/objects/volleyball.jpg,left,old,68,,,,,,,,
,,,,,,,,11,2021-01-19_17h59.37.822,premce3DEU_ses-02_part-02_label-phase2,2020.1.2,Win32,60,right,5.17848,2,0.50223,0,28,28,153,1,stimuli/objects/coffeemachine.jpg,left,old,154,,,,,,,,
,,,,,,,,11,2021-01-19_17h59.37.822,premce3DEU_ses-02_part-02_label-phase2,2020.1.2,Win32,60,right,1.57875,2,0.344735,0,29,29,83,1,stimuli/objects/flugglehorn.jpg,right,new,84,,,,,,,,
,,,,,,,,11,2021-01-19_17h59.37.822,premce3DEU_ses-02_part-02_label-phase2,2020.1.2,Win32,60,right,0.843165,4,1.36585,0,30,30,34,1,stimuli/objects/aquarium.jpg,left,old,35,,,,,,,,
,,,,,,,,11,2021-01-19_17h59.37.822,premce3DEU_ses-02_part-02_label-phase2,2020.1.2,Win32,60,left,1.387795,2,0.29416,0,31,31,22,1,stimuli/objects/paperairplane.jpg,right,new,23,,,,,,,,
,,,,,,,,11,2021-01-19_17h59.37.822,premce3DEU_ses-02_part-02_label-phase2,2020.1.2,Win32,60,right,2.322545,3,2.470195,0,32,32,134,1,stimuli/objects/nunchuk.jpg,right,new,135,,,,,,,,
,,,,,,,,11,2021-01-19_17h59.37.822,premce3DEU_ses-02_part-02_label-phase2,2020.1.2,Win32,60,right,0.870275,3,0.30104,0,33,33,158,1,stimuli/objects/watercooler.jpg,right,new,159,,,,,,,,
,,,,,,,,11,2021-01-19_17h59.37.822,premce3DEU_ses-02_part-02_label-phase2,2020.1.2,Win32,60,right,1.233165,4,0.325375,0,34,34,66,1,stimuli/objects/shipinabottle.jpg,right,new,67,,,,,,,,
,,,,,,,,11,2021-01-19_17h59.37.822,premce3DEU_ses-02_part-02_label-phase2,2020.1.2,Win32,60,right,1.114155,4,0.24476,0,35,35,131,1,stimuli/objects/missile.jpg,right,new,132,,,,,,,,
,,,,,,,,11,2021-01-19_17h59.37.822,premce3DEU_ses-02_part-02_label-phase2,2020.1.2,Win32,60,right,0.960015,3,1.40255,0,36,36,33,1,stimuli/objects/caribou02.jpg,right,new,34,,,,,,,,
,,,,,,,,11,2021-01-19_17h59.37.822,premce3DEU_ses-02_part-02_label-phase2,2020.1.2,Win32,60,left,1.4529,2,0.18584,0,37,37,110,1,stimuli/objects/foosballtable.jpg,right,new,111,,,,,,,,
,,,,,,,,11,2021-01-19_17h59.37.822,premce3DEU_ses-02_part-02_label-phase2,2020.1.2,Win32,60,right,1.232515,3,2.07877,0,38,38,32,1,stimuli/objects/moth.jpg,right,new,33,,,,,,,,
,,,,,,,,11,2021-01-19_17h59.37.822,premce3DEU_ses-02_part-02_label-phase2,2020.1.2,Win32,60,left,1.565895,2,0.54466,0,39,39,91,1,stimuli/objects/eyepatch.jpg,left,old,92,,,,,,,,
,,,,,,,,11,2021-01-19_17h59.37.822,premce3DEU_ses-02_part-02_label-phase2,2020.1.2,Win32,60,right,0.96466,3,1.801945,0,40,40,42,1,stimuli/objects/snowshoe.jpg,right,new,43,,,,,,,,
,,,,,,,,11,2021-01-19_17h59.37.822,premce3DEU_ses-02_part-02_label-phase2,2020.1.2,Win32,60,right,0.911625,3,0.31962,0,41,41,117,1,stimuli/objects/bull.jpg,right,new,118,,,,,,,,
,,,,,,,,11,2021-01-19_17h59.37.822,premce3DEU_ses-02_part-02_label-phase2,2020.1.2,Win32,60,right,0.876955,3,0.562035,0,42,42,41,1,stimuli/objects/faxmachine.jpg,right,new,42,,,,,,,,
,,,,,,,,11,2021-01-19_17h59.37.822,premce3DEU_ses-02_part-02_label-phase2,2020.1.2,Win32,60,left,1.274535,2,0.100585,0,43,43,11,1,stimuli/objects/cannon.jpg,left,old,12,,,,,,,,
,,,,,,,,11,2021-01-19_17h59.37.822,premce3DEU_ses-02_part-02_label-phase2,2020.1.2,Win32,60,left,0.885445,3,0.15388,0,44,44,12,1,stimuli/objects/pigeon.jpg,right,new,13,,,,,,,,
,,,,,,,,11,2021-01-19_17h59.37.822,premce3DEU_ses-02_part-02_label-phase2,2020.1.2,Win32,60,right,1.82235,2,0.60891,0,45,45,113,1,stimuli/objects/shoppingcart.jpg,right,new,114,,,,,,,,
,,,,,,,,11,2021-01-19_17h59.37.822,premce3DEU_ses-02_part-02_label-phase2,2020.1.2,Win32,60,right,0.766465,3,0.630115,0,46,46,95,1,stimuli/objects/scalpel.jpg,left,old,96,,,,,,,,
,,,,,,,,11,2021-01-19_17h59.37.822,premce3DEU_ses-02_part-02_label-phase2,2020.1.2,Win32,60,left,1.159665,2,1.19921,0,47,47,159,1,stimuli/objects/stairs.jpg,right,new,160,,,,,,,,
,,,,,,,,11,2021-01-19_17h59.37.822,premce3DEU_ses-02_part-02_label-phase2,2020.1.2,Win32,60,right,0.865195,3,0.8843,0,48,48,20,1,stimuli/objects/accordion01.jpg,right,new,21,,,,,,,,
,,,,,,,,11,2021-01-19_17h59.37.822,premce3DEU_ses-02_part-02_label-phase2,2020.1.2,Win32,60,left,1.274525,2,0.197995,0,49,49,48,1,stimuli/objects/bowlingpin.jpg,left,old,49,,,,,,,,
,,,,,,,,11,2021-01-19_17h59.37.822,premce3DEU_ses-02_part-02_label-phase2,2020.1.2,Win32,60,right,0.761755,3,0.257565,0,50,50,81,1,stimuli/objects/lighthouse.jpg,right,new,82,,,,,,,,
,,,,,,,,11,2021-01-19_17h59.37.822,premce3DEU_ses-02_part-02_label-phase2,2020.1.2,Win32,60,left,1.096725,3,0.59163,0,51,51,77,1,stimuli/objects/fishskeleton.jpg,left,old,78,,,,,,,,
,,,,,,,,11,2021-01-19_17h59.37.822,premce3DEU_ses-02_part-02_label-phase2,2020.1.2,Win32,60,right,1.255245,2,0.63948,0,52,52,3,1,stimuli/objects/vacuumcleaner01.jpg,left,old,4,,,,,,,,
,,,,,,,,11,2021-01-19_17h59.37.822,premce3DEU_ses-02_part-02_label-phase2,2020.1.2,Win32,60,right,0.862415,3,0.52651,0,53,53,92,1,stimuli/objects/armchair02.jpg,right,new,93,,,,,,,,
,,,,,,,,11,2021-01-19_17h59.37.822,premce3DEU_ses-02_part-02_label-phase2,2020.1.2,Win32,60,right,1.18649,4,0.33881,0,54,54,141,1,stimuli/objects/stroller.jpg,right,new,142,,,,,,,,
,,,,,,,,11,2021-01-19_17h59.37.822,premce3DEU_ses-02_part-02_label-phase2,2020.1.2,Win32,60,left,1.138195,2,0.647145,0,55,55,14,1,stimuli/objects/canoepaddle02.jpg,left,old,15,,,,,,,,
,,,,,,,,11,2021-01-19_17h59.37.822,premce3DEU_ses-02_part-02_label-phase2,2020.1.2,Win32,60,left,1.12251,2,0.19679,0,56,56,18,1,stimuli/objects/pingpongtable.jpg,right,new,19,,,,,,,,
,,,,,,,,11,2021-01-19_17h59.37.822,premce3DEU_ses-02_part-02_label-phase2,2020.1.2,Win32,60,right,0.94475,4,1.08002,0,57,57,94,1,stimuli/objects/dandelion.jpg,right,new,95,,,,,,,,
,,,,,,,,11,2021-01-19_17h59.37.822,premce3DEU_ses-02_part-02_label-phase2,2020.1.2,Win32,60,right,1.53251,2,0.27778,0,58,58,69,1,stimuli/objects/granolabar01.jpg,left,old,70,,,,,,,,
,,,,,,,,11,2021-01-19_17h59.37.822,premce3DEU_ses-02_part-02_label-phase2,2020.1.2,Win32,60,right,1.43502,3,0.28318,0,59,59,136,1,stimuli/objects/wheat.jpg,right,new,137,,,,,,,,
,,,,,,,,11,2021-01-19_17h59.37.822,premce3DEU_ses-02_part-02_label-phase2,2020.1.2,Win32,60,right,0.812115,3,0.239205,0,60,60,21,1,stimuli/objects/tire.jpg,right,new,22,,,,,,,,
,,,,,,,,11,2021-01-19_17h59.37.822,premce3DEU_ses-02_part-02_label-phase2,2020.1.2,Win32,60,right,0.85582,3,0.256745,0,61,61,71,1,stimuli/objects/bed.jpg,right,new,72,,,,,,,,
,,,,,,,,11,2021-01-19_17h59.37.822,premce3DEU_ses-02_part-02_label-phase2,2020.1.2,Win32,60,right,0.73032,4,0.280645,0,62,62,13,1,stimuli/objects/tower.jpg,right,new,14,,,,,,,,
,,,,,,,,11,2021-01-19_17h59.37.822,premce3DEU_ses-02_part-02_label-phase2,2020.1.2,Win32,60,left,0.95825,4,0.178375,0,63,63,88,1,stimuli/objects/jackrabbit.jpg,left,old,89,,,,,,,,
,,,,,,,,11,2021-01-19_17h59.37.822,premce3DEU_ses-02_part-02_label-phase2,2020.1.2,Win32,60,left,0.83513,4,0.296105,0,64,64,44,1,stimuli/objects/artichoke01b.jpg,left,old,45,,,,,,,,
,,,,,,,,11,2021-01-19_17h59.37.822,premce3DEU_ses-02_part-02_label-phase2,2020.1.2,Win32,60,right,0.848695,3,0.94285,0,65,65,112,1,stimuli/objects/tank.jpg,right,new,113,,,,,,,,
,,,,,,,,11,2021-01-19_17h59.37.822,premce3DEU_ses-02_part-02_label-phase2,2020.1.2,Win32,60,right,0.787225,4,0.352595,0,66,66,96,1,stimuli/objects/awning.jpg,right,new,97,,,,,,,,
,,,,,,,,11,2021-01-19_17h59.37.822,premce3DEU_ses-02_part-02_label-phase2,2020.1.2,Win32,60,left,1.06347,3,0.2587,0,67,67,151,1,stimuli/objects/contactlens.jpg,left,old,152,,,,,,,,
,,,,,,,,11,2021-01-19_17h59.37.822,premce3DEU_ses-02_part-02_label-phase2,2020.1.2,Win32,60,right,1.015305,3,0.532935,0,68,68,49,1,stimuli/objects/triangle.jpg,left,old,50,,,,,,,,
,,,,,,,,11,2021-01-19_17h59.37.822,premce3DEU_ses-02_part-02_label-phase2,2020.1.2,Win32,60,left,2.157115,2,0.27951,0,69,69,52,1,stimuli/objects/turkey.jpg,right,new,53,,,,,,,,
,,,,,,,,11,2021-01-19_17h59.37.822,premce3DEU_ses-02_part-02_label-phase2,2020.1.2,Win32,60,right,0.690435,3,1.68656,0,70,70,154,1,stimuli/objects/curtain.jpg,right,new,155,,,,,,,,
,,,,,,,,11,2021-01-19_17h59.37.822,premce3DEU_ses-02_part-02_label-phase2,2020.1.2,Win32,60,right,1.01255,2,2.18608,0,71,71,108,1,stimuli/objects/communitymailbox.jpg,left,old,109,,,,,,,,
,,,,,,,,11,2021-01-19_17h59.37.822,premce3DEU_ses-02_part-02_label-phase2,2020.1.2,Win32,60,right,1.71837,3,0.183965,0,72,72,111,1,stimuli/objects/platypus.jpg,right,new,112,,,,,,,,
,,,,,,,,11,2021-01-19_17h59.37.822,premce3DEU_ses-02_part-02_label-phase2,2020.1.2,Win32,60,left,1.49443,2,0.28476,0,73,73,137,1,stimuli/objects/brownsugar.jpg,left,old,138,,,,,,,,
,,,,,,,,11,2021-01-19_17h59.37.822,premce3DEU_ses-02_part-02_label-phase2,2020.1.2,Win32,60,right,1.06876,4,0.342095,0,74,74,155,1,stimuli/objects/calendar.jpg,right,new,156,,,,,,,,
,,,,,,,,11,2021-01-19_17h59.37.822,premce3DEU_ses-02_part-02_label-phase2,2020.1.2,Win32,60,right,2.39249,3,0.23896,0,75,75,24,1,stimuli/objects/icecube02.jpg,right,new,25,,,,,,,,
,,,,,,,,11,2021-01-19_17h59.37.822,premce3DEU_ses-02_part-02_label-phase2,2020.1.2,Win32,60,right,1.82638,2,1.605815,0,76,76,138,1,stimuli/objects/cow.jpg,right,new,139,,,,,,,,
,,,,,,,,11,2021-01-19_17h59.37.822,premce3DEU_ses-02_part-02_label-phase2,2020.1.2,Win32,60,right,2.36759,2,0.69533,0,77,77,133,1,stimuli/objects/sink.jpg,right,new,134,,,,,,,,
,,,,,,,,11,2021-01-19_17h59.37.822,premce3DEU_ses-02_part-02_label-phase2,2020.1.2,Win32,60,right,1.19817,3,0.25191,0,78,78,55,1,stimuli/objects/drumstick.jpg,right,new,56,,,,,,,,
,,,,,,,,11,2021-01-19_17h59.37.822,premce3DEU_ses-02_part-02_label-phase2,2020.1.2,Win32,60,right,1.038395,3,0.31507,0,79,79,1,1,stimuli/objects/pooltable.jpg,right,new,2,,,,,,,,
,,,,,,,,11,2021-01-19_17h59.37.822,premce3DEU_ses-02_part-02_label-phase2,2020.1.2,Win32,60,left,1.72692,2,0.24017,0,80,80,156,1,stimuli/objects/skateboard.jpg,left,old,157,,,,,,,,
,,,,,,,,11,2021-01-19_17h59.37.822,premce3DEU_ses-02_part-02_label-phase2,2020.1.2,Win32,60,right,1.03115,4,0.19695,0,81,81,128,1,stimuli/objects/makiroll.jpg,right,new,129,,,,,,,,
,,,,,,,,11,2021-01-19_17h59.37.822,premce3DEU_ses-02_part-02_label-phase2,2020.1.2,Win32,60,right,1.21437,3,0.44122,0,82,82,25,1,stimuli/objects/honeycomb.jpg,right,new,26,,,,,,,,
,,,,,,,,11,2021-01-19_17h59.37.822,premce3DEU_ses-02_part-02_label-phase2,2020.1.2,Win32,60,right,1.032865,3,0.265525,0,83,83,54,1,stimuli/objects/toynutcracker.jpg,right,new,55,,,,,,,,
,,,,,,,,11,2021-01-19_17h59.37.822,premce3DEU_ses-02_part-02_label-phase2,2020.1.2,Win32,60,left,1.642145,2,0.194335,0,84,84,102,1,stimuli/objects/forklift.jpg,left,old,103,,,,,,,,
,,,,,,,,11,2021-01-19_17h59.37.822,premce3DEU_ses-02_part-02_label-phase2,2020.1.2,Win32,60,right,1.14515,4,0.26396,0,85,85,46,1,stimuli/objects/entrancegate.jpg,right,new,47,,,,,,,,
,,,,,,,,11,2021-01-19_17h59.37.822,premce3DEU_ses-02_part-02_label-phase2,2020.1.2,Win32,60,left,1.19306,3,0.21127,0,86,86,36,1,stimuli/objects/christmaslights.jpg,left,old,37,,,,,,,,
,,,,,,,,11,2021-01-19_17h59.37.822,premce3DEU_ses-02_part-02_label-phase2,2020.1.2,Win32,60,right,2.12247,2,1.179105,0,87,87,73,1,stimuli/objects/guitarcase.jpg,right,new,74,,,,,,,,
,,,,,,,,11,2021-01-19_17h59.37.822,premce3DEU_ses-02_part-02_label-phase2,2020.1.2,Win32,60,right,1.13662,2,0.88724,0,88,88,10,1,stimuli/objects/tablesaw.jpg,right,new,11,,,,,,,,
,,,,,,,,11,2021-01-19_17h59.37.822,premce3DEU_ses-02_part-02_label-phase2,2020.1.2,Win32,60,left,0.960025,2,0.693465,0,89,89,148,1,stimuli/objects/peacock.jpg,right,new,149,,,,,,,,
,,,,,,,,11,2021-01-19_17h59.37.822,premce3DEU_ses-02_part-02_label-phase2,2020.1.2,Win32,60,right,1.008075,1,2.405985,0,90,90,124,1,stimuli/objects/handheldtelescope.jpg,left,old,125,,,,,,,,
,,,,,,,,11,2021-01-19_17h59.37.822,premce3DEU_ses-02_part-02_label-phase2,2020.1.2,Win32,60,right,3.000405,2,0.18501,0,91,91,15,1,stimuli/objects/dromedary.jpg,left,old,16,,,,,,,,
,,,,,,,,11,2021-01-19_17h59.37.822,premce3DEU_ses-02_part-02_label-phase2,2020.1.2,Win32,60,left,1.785235,2,0.331555,0,92,92,132,1,stimuli/objects/shower.jpg,left,old,133,,,,,,,,
,,,,,,,,11,2021-01-19_17h59.37.822,premce3DEU_ses-02_part-02_label-phase2,2020.1.2,Win32,60,left,1.079665,2,0.211285,0,93,93,90,1,stimuli/objects/trailer.jpg,right,new,91,,,,,,,,
,,,,,,,,11,2021-01-19_17h59.37.822,premce3DEU_ses-02_part-02_label-phase2,2020.1.2,Win32,60,right,0.820625,3,0.24278,0,94,94,143,1,stimuli/objects/faucet.jpg,right,new,144,,,,,,,,
,,,,,,,,11,2021-01-19_17h59.37.822,premce3DEU_ses-02_part-02_label-phase2,2020.1.2,Win32,60,right,1.063745,2,0.98133,0,95,95,4,1,stimuli/objects/skipole.jpg,right,new,5,,,,,,,,
,,,,,,,,11,2021-01-19_17h59.37.822,premce3DEU_ses-02_part-02_label-phase2,2020.1.2,Win32,60,right,0.77184,1,1.43231,0,96,96,61,1,stimuli/objects/jokercard.jpg,left,old,62,,,,,,,,
,,,,,,,,11,2021-01-19_17h59.37.822,premce3DEU_ses-02_part-02_label-phase2,2020.1.2,Win32,60,left,2.581225,2,0.66177,0,97,97,140,1,stimuli/objects/exitsign.jpg,left,old,141,,,,,,,,
,,,,,,,,11,2021-01-19_17h59.37.822,premce3DEU_ses-02_part-02_label-phase2,2020.1.2,Win32,60,right,2.15813,3,0.57799,0,98,98,98,1,stimuli/objects/handbrush02.jpg,left,old,99,,,,,,,,
,,,,,,,,11,2021-01-19_17h59.37.822,premce3DEU_ses-02_part-02_label-phase2,2020.1.2,Win32,60,left,2.127485,1,1.331235,0,99,99,60,1,stimuli/objects/banjo.jpg,right,new,61,,,,,,,,
,,,,,,,,11,2021-01-19_17h59.37.822,premce3DEU_ses-02_part-02_label-phase2,2020.1.2,Win32,60,left,4.35018,2,0.173565,0,100,100,53,1,stimuli/objects/honeybee.jpg,right,new,54,,,,,,,,
,,,,,,,,11,2021-01-19_17h59.37.822,premce3DEU_ses-02_part-02_label-phase2,2020.1.2,Win32,60,right,0.79853,3,0.25558,0,101,101,99,1,stimuli/objects/waterfountain02.jpg,left,old,100,,,,,,,,
,,,,,,,,11,2021-01-19_17h59.37.822,premce3DEU_ses-02_part-02_label-phase2,2020.1.2,Win32,60,right,1.738,3,0.218525,0,102,102,109,1,stimuli/objects/webcam.jpg,right,new,110,,,,,,,,
,,,,,,,,11,2021-01-19_17h59.37.822,premce3DEU_ses-02_part-02_label-phase2,2020.1.2,Win32,60,right,1.179875,3,0.310195,0,103,103,70,1,stimuli/objects/balcony02.jpg,left,old,71,,,,,,,,
,,,,,,,,11,2021-01-19_17h59.37.822,premce3DEU_ses-02_part-02_label-phase2,2020.1.2,Win32,60,right,1.71025,2,0.25878,0,104,104,97,1,stimuli/objects/dreamcatcher.jpg,left,old,98,,,,,,,,
,,,,,,,,11,2021-01-19_17h59.37.822,premce3DEU_ses-02_part-02_label-phase2,2020.1.2,Win32,60,right,1.75656,1,0.30967,0,105,105,30,1,stimuli/objects/fortunecookie.jpg,right,new,31,,,,,,,,
,,,,,,,,11,2021-01-19_17h59.37.822,premce3DEU_ses-02_part-02_label-phase2,2020.1.2,Win32,60,left,1.259855,3,1.16249,0,106,106,93,1,stimuli/objects/discoball.jpg,right,new,94,,,,,,,,
,,,,,,,,11,2021-01-19_17h59.37.822,premce3DEU_ses-02_part-02_label-phase2,2020.1.2,Win32,60,right,0.890635,2,0.43468,0,107,107,101,1,stimuli/objects/apron.jpg,left,old,102,,,,,,,,
,,,,,,,,11,2021-01-19_17h59.37.822,premce3DEU_ses-02_part-02_label-phase2,2020.1.2,Win32,60,right,1.058405,3,0.50712,0,108,108,35,1,stimuli/objects/skihelmet01.jpg,left,old,36,,,,,,,,
,,,,,,,,11,2021-01-19_17h59.37.822,premce3DEU_ses-02_part-02_label-phase2,2020.1.2,Win32,60,right,1.800695,3,0.07652,0,109,109,31,1,stimuli/objects/file.jpg,left,old,32,,,,,,,,
,,,,,,,,11,2021-01-19_17h59.37.822,premce3DEU_ses-02_part-02_label-phase2,2020.1.2,Win32,60,right,1.12652,2,0.96619,0,110,110,123,1,stimuli/objects/lintroller.jpg,left,old,124,,,,,,,,
,,,,,,,,11,2021-01-19_17h59.37.822,premce3DEU_ses-02_part-02_label-phase2,2020.1.2,Win32,60,left,1.567885,2,0.273035,0,111,111,79,1,stimuli/objects/callbell.jpg,left,old,80,,,,,,,,
,,,,,,,,11,2021-01-19_17h59.37.822,premce3DEU_ses-02_part-02_label-phase2,2020.1.2,Win32,60,right,0.8583,4,0.352385,0,112,112,63,1,stimuli/objects/toasteroven.jpg,right,new,64,,,,,,,,
,,,,,,,,11,2021-01-19_17h59.37.822,premce3DEU_ses-02_part-02_label-phase2,2020.1.2,Win32,60,left,0.923075,4,0.284875,0,113,113,64,1,stimuli/objects/dalmatian.jpg,left,old,65,,,,,,,,
,,,,,,,,11,2021-01-19_17h59.37.822,premce3DEU_ses-02_part-02_label-phase2,2020.1.2,Win32,60,left,0.79829,3,0.179415,0,114,114,142,1,stimuli/objects/giraffe.jpg,left,old,143,,,,,,,,
,,,,,,,,11,2021-01-19_17h59.37.822,premce3DEU_ses-02_part-02_label-phase2,2020.1.2,Win32,60,right,0.97399,1,3.86062,0,115,115,28,1,stimuli/objects/seaturtle.jpg,left,old,29,,,,,,,,
,,,,,,,,11,2021-01-19_17h59.37.822,premce3DEU_ses-02_part-02_label-phase2,2020.1.2,Win32,60,right,1.16154,3,0.162,0,116,116,152,1,stimuli/objects/urinal.jpg,left,old,153,,,,,,,,
,,,,,,,,11,2021-01-19_17h59.37.822,premce3DEU_ses-02_part-02_label-phase2,2020.1.2,Win32,60,right,1.001725,2,0.439675,0,117,117,125,1,stimuli/objects/freezer02.jpg,right,new,126,,,,,,,,
,,,,,,,,11,2021-01-19_17h59.37.822,premce3DEU_ses-02_part-02_label-phase2,2020.1.2,Win32,60,left,1.18528,3,0.369425,0,118,118,37,1,stimuli/objects/golfball.jpg,left,old,38,,,,,,,,
,,,,,,,,11,2021-01-19_17h59.37.822,premce3DEU_ses-02_part-02_label-phase2,2020.1.2,Win32,60,left,0.910475,4,0.159405,0,119,119,114,1,stimuli/objects/star.jpg,left,old,115,,,,,,,,
,,,,,,,,11,2021-01-19_17h59.37.822,premce3DEU_ses-02_part-02_label-phase2,2020.1.2,Win32,60,left,0.84815,3,3.414015,0,120,120,9,1,stimuli/objects/rose.jpg,right,new,10,,,,,,,,
,,,,,,,,11,2021-01-19_17h59.37.822,premce3DEU_ses-02_part-02_label-phase2,2020.1.2,Win32,60,right,1.406285,3,0.477315,0,121,121,56,1,stimuli/objects/jeans01.jpg,left,old,57,,,,,,,,
,,,,,,,,11,2021-01-19_17h59.37.822,premce3DEU_ses-02_part-02_label-phase2,2020.1.2,Win32,60,left,0.91766,4,0.274615,0,122,122,5,1,stimuli/objects/horse.jpg,left,old,6,,,,,,,,
,,,,,,,,11,2021-01-19_17h59.37.822,premce3DEU_ses-02_part-02_label-phase2,2020.1.2,Win32,60,right,1.055395,3,1.029815,0,123,123,19,1,stimuli/objects/crosscountryski.jpg,right,new,20,,,,,,,,
,,,,,,,,11,2021-01-19_17h59.37.822,premce3DEU_ses-02_part-02_label-phase2,2020.1.2,Win32,60,right,0.96797,2,0.41,0,124,124,45,1,stimuli/objects/fridge.jpg,left,old,46,,,,,,,,
,,,,,,,,11,2021-01-19_17h59.37.822,premce3DEU_ses-02_part-02_label-phase2,2020.1.2,Win32,60,left,2.191035,2,0.108975,0,125,125,147,1,stimuli/objects/toiletbrush.jpg,right,new,148,,,,,,,,
,,,,,,,,11,2021-01-19_17h59.37.822,premce3DEU_ses-02_part-02_label-phase2,2020.1.2,Win32,60,right,1.006055,2,2.350615,0,126,126,89,1,stimuli/objects/bowlingball.jpg,right,new,90,,,,,,,,
,,,,,,,,11,2021-01-19_17h59.37.822,premce3DEU_ses-02_part-02_label-phase2,2020.1.2,Win32,60,right,1.41263,4,0.06452,0,127,127,51,1,stimuli/objects/road02.jpg,right,new,52,,,,,,,,
,,,,,,,,11,2021-01-19_17h59.37.822,premce3DEU_ses-02_part-02_label-phase2,2020.1.2,Win32,60,left,2.437765,2,0.11979,0,128,128,157,1,stimuli/objects/cookingpot.jpg,left,old,158,,,,,,,,
,,,,,,,,11,2021-01-19_17h59.37.822,premce3DEU_ses-02_part-02_label-phase2,2020.1.2,Win32,60,right,0.76947,2,1.66429,0,129,129,17,1,stimuli/objects/parkingmeter.jpg,right,new,18,,,,,,,,
,,,,,,,,11,2021-01-19_17h59.37.822,premce3DEU_ses-02_part-02_label-phase2,2020.1.2,Win32,60,right,0.9415,2,0.219425,0,130,130,126,1,stimuli/objects/bat.jpg,right,new,127,,,,,,,,
,,,,,,,,11,2021-01-19_17h59.37.822,premce3DEU_ses-02_part-02_label-phase2,2020.1.2,Win32,60,right,0.916135,3,0.18052,0,131,131,105,1,stimuli/objects/gps.jpg,left,old,106,,,,,,,,
,,,,,,,,11,2021-01-19_17h59.37.822,premce3DEU_ses-02_part-02_label-phase2,2020.1.2,Win32,60,right,0.83336,3,0.44593,0,132,132,86,1,stimuli/objects/chimney.jpg,right,new,87,,,,,,,,
,,,,,,,,11,2021-01-19_17h59.37.822,premce3DEU_ses-02_part-02_label-phase2,2020.1.2,Win32,60,left,2.124765,3,0.40318,0,133,133,84,1,stimuli/objects/winniethepooh.jpg,left,old,85,,,,,,,,
,,,,,,,,11,2021-01-19_17h59.37.822,premce3DEU_ses-02_part-02_label-phase2,2020.1.2,Win32,60,left,0.95525,4,0.229945,0,134,134,65,1,stimuli/objects/weddingcake.jpg,left,old,66,,,,,,,,
,,,,,,,,11,2021-01-19_17h59.37.822,premce3DEU_ses-02_part-02_label-phase2,2020.1.2,Win32,60,left,1.04951,3,0.41336,0,135,135,122,1,stimuli/objects/soccerball.jpg,left,old,123,,,,,,,,
,,,,,,,,11,2021-01-19_17h59.37.822,premce3DEU_ses-02_part-02_label-phase2,2020.1.2,Win32,60,right,1.03858,3,0.365835,0,136,136,57,1,stimuli/objects/cupcake.jpg,right,new,58,,,,,,,,
,,,,,,,,11,2021-01-19_17h59.37.822,premce3DEU_ses-02_part-02_label-phase2,2020.1.2,Win32,60,left,0.78413,4,0.23369,0,137,137,103,1,stimuli/objects/salmon.jpg,left,old,104,,,,,,,,
,,,,,,,,11,2021-01-19_17h59.37.822,premce3DEU_ses-02_part-02_label-phase2,2020.1.2,Win32,60,right,0.957955,1,1.44534,0,138,138,107,1,stimuli/objects/musicstand.jpg,left,old,108,,,,,,,,
,,,,,,,,11,2021-01-19_17h59.37.822,premce3DEU_ses-02_part-02_label-phase2,2020.1.2,Win32,60,left,1.01014,4,0.14609,0,139,139,68,1,stimuli/objects/cuttlefish.jpg,left,old,69,,,,,,,,
,,,,,,,,11,2021-01-19_17h59.37.822,premce3DEU_ses-02_part-02_label-phase2,2020.1.2,Win32,60,right,0.856815,4,0.092545,0,140,140,150,1,stimuli/objects/eiffeltower.jpg,right,new,151,,,,,,,,
,,,,,,,,11,2021-01-19_17h59.37.822,premce3DEU_ses-02_part-02_label-phase2,2020.1.2,Win32,60,left,0.91984,4,0.21152,0,141,141,127,1,stimuli/objects/sausage.jpg,left,old,128,,,,,,,,
,,,,,,,,11,2021-01-19_17h59.37.822,premce3DEU_ses-02_part-02_label-phase2,2020.1.2,Win32,60,right,2.559135,3,0.405955,0,142,142,27,1,stimuli/objects/coffeemaker.jpg,left,old,28,,,,,,,,
,,,,,,,,11,2021-01-19_17h59.37.822,premce3DEU_ses-02_part-02_label-phase2,2020.1.2,Win32,60,right,0.7901,4,0.111675,0,143,143,85,1,stimuli/objects/bridge.jpg,right,new,86,,,,,,,,
,,,,,,,,11,2021-01-19_17h59.37.822,premce3DEU_ses-02_part-02_label-phase2,2020.1.2,Win32,60,left,1.19082,4,0.09167,0,144,144,29,1,stimuli/objects/snowman.jpg,left,old,30,,,,,,,,
,,,,,,,,11,2021-01-19_17h59.37.822,premce3DEU_ses-02_part-02_label-phase2,2020.1.2,Win32,60,right,0.77555,3,0.49971,0,145,145,39,1,stimuli/objects/electrictoothbrush01c.jpg,right,new,40,,,,,,,,
,,,,,,,,11,2021-01-19_17h59.37.822,premce3DEU_ses-02_part-02_label-phase2,2020.1.2,Win32,60,right,0.98865,2,0.25928,0,146,146,120,1,stimuli/objects/panda.jpg,left,old,121,,,,,,,,
,,,,,,,,11,2021-01-19_17h59.37.822,premce3DEU_ses-02_part-02_label-phase2,2020.1.2,Win32,60,right,1.074995,3,0.133055,0,147,147,0,1,stimuli/objects/treestump.jpg,left,old,1,,,,,,,,
,,,,,,,,11,2021-01-19_17h59.37.822,premce3DEU_ses-02_part-02_label-phase2,2020.1.2,Win32,60,right,1.179105,3,1.33588,0,148,148,115,1,stimuli/objects/lantern03.jpg,left,old,116,,,,,,,,
,,,,,,,,11,2021-01-19_17h59.37.822,premce3DEU_ses-02_part-02_label-phase2,2020.1.2,Win32,60,right,1.1286,4,0.22881,0,149,149,59,1,stimuli/objects/birdhouse.jpg,right,new,60,,,,,,,,
,,,,,,,,11,2021-01-19_17h59.37.822,premce3DEU_ses-02_part-02_label-phase2,2020.1.2,Win32,60,right,1.360735,2,0.22807,0,150,150,129,1,stimuli/objects/lawnmower.jpg,right,new,130,,,,,,,,
,,,,,,,,11,2021-01-19_17h59.37.822,premce3DEU_ses-02_part-02_label-phase2,2020.1.2,Win32,60,right,1.16379,3,0.13235,0,151,151,72,1,stimuli/objects/totempole.jpg,right,new,73,,,,,,,,
,,,,,,,,11,2021-01-19_17h59.37.822,premce3DEU_ses-02_part-02_label-phase2,2020.1.2,Win32,60,left,1.47252,3,0.29189,0,152,152,50,1,stimuli/objects/lionstatue.jpg,left,old,51,,,,,,,,
,,,,,,,,11,2021-01-19_17h59.37.822,premce3DEU_ses-02_part-02_label-phase2,2020.1.2,Win32,60,right,1.03754,3,0.885395,0,153,153,75,1,stimuli/objects/barn.jpg,left,old,76,,,,,,,,
,,,,,,,,11,2021-01-19_17h59.37.822,premce3DEU_ses-02_part-02_label-phase2,2020.1.2,Win32,60,left,1.379395,2,1.294475,0,154,154,62,1,stimuli/objects/trophy01.jpg,left,old,63,,,,,,,,
,,,,,,,,11,2021-01-19_17h59.37.822,premce3DEU_ses-02_part-02_label-phase2,2020.1.2,Win32,60,left,0.84929,4,0.142355,0,155,155,7,1,stimuli/objects/redonion.jpg,left,old,8,,,,,,,,
,,,,,,,,11,2021-01-19_17h59.37.822,premce3DEU_ses-02_part-02_label-phase2,2020.1.2,Win32,60,left,2.880275,4,0.82587,0,156,156,121,1,stimuli/objects/riverotter.jpg,right,new,122,,,,,,,,
,,,,,,,,11,2021-01-19_17h59.37.822,premce3DEU_ses-02_part-02_label-phase2,2020.1.2,Win32,60,left,1.506625,4,0.571295,0,157,157,40,1,stimuli/objects/cremebrulee.jpg,left,old,41,,,,,,,,
,,,,,,,,11,2021-01-19_17h59.37.822,premce3DEU_ses-02_part-02_label-phase2,2020.1.2,Win32,60,right,1.02656,2,0.27613,0,158,158,144,1,stimuli/objects/trombone.jpg,left,old,145,,,,,,,,
,,,,,,,,11,2021-01-19_17h59.37.822,premce3DEU_ses-02_part-02_label-phase2,2020.1.2,Win32,60,right,1.30696,1,0.38677,0,159,159,119,1,stimuli/objects/kite.jpg,right,new,120,,,,,,,,
,,,,,,,,11,2021-01-19_17h59.37.822,premce3DEU_ses-02_part-02_label-phase2,2020.1.2,Win32,60,,,,,,,,,,,,,,space,3.128995,0,1,1,0,1,ImagesforRecog1.csv
