instructions_loop.thisRepN,instructions_loop.thisTrialN,instructions_loop.thisN,instructions_loop.thisIndex,instructions_loop.ran,text1,text2,text3,participant,date,expName,psychopyVersion,OS,frameRate,recog_resp.keys,recog_resp.rt,conf_resp.keys,conf_resp.rt,recog_loop.thisRepN,recog_loop.thisTrialN,recog_loop.thisN,recog_loop.thisIndex,recog_loop.ran,images,corr_ans,type,order,key_resp_break.keys,key_resp_break.rt,list_loop.thisRepN,list_loop.thisTrialN,list_loop.thisN,list_loop.thisIndex,list_loop.ran,recog_list
0,0,0,0,1,Willkommen zum letzten Teil des Experiments!,,Mit der LEERTASTE kannst du mit der Aufgabe fortfahren.,2,2020-12-15_15h41.29.887,premce3DEU_ses-02_part-02_label-phase2,2020.1.2,Win32,60,,,,,,,,,,,,,,,,,,,,,
0,1,1,1,1,,"Jetzt werden wir dir einige Bilder zeigen.

Bitte gib zu jedem Bild an, ob du du es im Verlauf des Experiments gesehen hast.

Drücke die LINKE PFEILTASTE für JA
Drücke die RECHTE PFEILTASTE für NEIN

",Mit der LEERTASTE kannst du mit der Aufgabe fortfahren.,2,2020-12-15_15h41.29.887,premce3DEU_ses-02_part-02_label-phase2,2020.1.2,Win32,60,,,,,,,,,,,,,,,,,,,,,
0,2,2,2,1,,"Anschließend bitten wir dich anzugeben wie sicher du dir bei deiner Wahl bist.

Bitte nutze die Zifferntasten von 1 bis 4 am oberen Ende deiner Tastatur um anzugeben, wie sicher du dir bei deiner Antwort bist.

Die Zahlen stehen für

1 = Sehr unsicher
2 = Unsicher
3 = Sicher
4 = Sehr sicher",Mit der LEERTASTE kannst du mit der Aufgabe fortfahren.,2,2020-12-15_15h41.29.887,premce3DEU_ses-02_part-02_label-phase2,2020.1.2,Win32,60,,,,,,,,,,,,,,,,,,,,,
,,,,,,,,2,2020-12-15_15h41.29.887,premce3DEU_ses-02_part-02_label-phase2,2020.1.2,Win32,60,left,1.794815,2,1.70289,0,0,0,91,1,stimuli/objects/shed02.jpg,right,new,252,,,,,,,,
,,,,,,,,2,2020-12-15_15h41.29.887,premce3DEU_ses-02_part-02_label-phase2,2020.1.2,Win32,60,right,1.72139,2,1.08535,0,1,1,11,1,stimuli/objects/dolphin01.jpg,left,old,172,,,,,,,,
,,,,,,,,2,2020-12-15_15h41.29.887,premce3DEU_ses-02_part-02_label-phase2,2020.1.2,Win32,60,right,1.514245,3,1.13354,0,2,2,92,1,stimuli/objects/mirror02.jpg,left,old,253,,,,,,,,
,,,,,,,,2,2020-12-15_15h41.29.887,premce3DEU_ses-02_part-02_label-phase2,2020.1.2,Win32,60,right,1.58062,4,2.81017,0,3,3,65,1,stimuli/objects/spacerover.jpg,right,new,226,,,,,,,,
,,,,,,,,2,2020-12-15_15h41.29.887,premce3DEU_ses-02_part-02_label-phase2,2020.1.2,Win32,60,left,1.524505,4,1.5788,0,4,4,46,1,stimuli/objects/kneepad01c.jpg,right,new,207,,,,,,,,
,,,,,,,,2,2020-12-15_15h41.29.887,premce3DEU_ses-02_part-02_label-phase2,2020.1.2,Win32,60,right,2.012045,3,0.77222,0,5,5,58,1,stimuli/objects/tricycle.jpg,left,old,219,,,,,,,,
,,,,,,,,2,2020-12-15_15h41.29.887,premce3DEU_ses-02_part-02_label-phase2,2020.1.2,Win32,60,left,0.907825,4,0.51154,0,6,6,37,1,stimuli/objects/football.jpg,left,old,198,,,,,,,,
,,,,,,,,2,2020-12-15_15h41.29.887,premce3DEU_ses-02_part-02_label-phase2,2020.1.2,Win32,60,right,1.831775,2,0.273765,0,7,7,13,1,stimuli/objects/sailboat.jpg,left,old,174,,,,,,,,
,,,,,,,,2,2020-12-15_15h41.29.887,premce3DEU_ses-02_part-02_label-phase2,2020.1.2,Win32,60,left,1.078465,2,0.24653,0,8,8,111,1,stimuli/objects/jellybean.jpg,left,old,272,,,,,,,,
,,,,,,,,2,2020-12-15_15h41.29.887,premce3DEU_ses-02_part-02_label-phase2,2020.1.2,Win32,60,right,1.47822,3,0.12815,0,9,9,23,1,stimuli/objects/graduationcap.jpg,right,new,184,,,,,,,,
,,,,,,,,2,2020-12-15_15h41.29.887,premce3DEU_ses-02_part-02_label-phase2,2020.1.2,Win32,60,right,1.163845,2,0.000775,0,10,10,155,1,stimuli/objects/fishingrod.jpg,left,old,316,,,,,,,,
,,,,,,,,2,2020-12-15_15h41.29.887,premce3DEU_ses-02_part-02_label-phase2,2020.1.2,Win32,60,right,1.22872,1,0.056925,0,11,11,126,1,stimuli/objects/birdfeeder.jpg,left,old,287,,,,,,,,
,,,,,,,,2,2020-12-15_15h41.29.887,premce3DEU_ses-02_part-02_label-phase2,2020.1.2,Win32,60,right,1.87444,4,0.357135,0,12,12,76,1,stimuli/objects/statue.jpg,right,new,237,,,,,,,,
,,,,,,,,2,2020-12-15_15h41.29.887,premce3DEU_ses-02_part-02_label-phase2,2020.1.2,Win32,60,left,0.788905,4,0.341555,0,13,13,80,1,stimuli/objects/floorlamp.jpg,right,new,241,,,,,,,,
,,,,,,,,2,2020-12-15_15h41.29.887,premce3DEU_ses-02_part-02_label-phase2,2020.1.2,Win32,60,right,1.21836,3,0.27354,0,14,14,99,1,stimuli/objects/bacon.jpg,left,old,260,,,,,,,,
,,,,,,,,2,2020-12-15_15h41.29.887,premce3DEU_ses-02_part-02_label-phase2,2020.1.2,Win32,60,right,1.56721,2,0.714235,0,15,15,38,1,stimuli/objects/bread.jpg,right,new,199,,,,,,,,
,,,,,,,,2,2020-12-15_15h41.29.887,premce3DEU_ses-02_part-02_label-phase2,2020.1.2,Win32,60,left,2.13167,3,0.30745,0,16,16,57,1,stimuli/objects/spaghetti01.jpg,right,new,218,,,,,,,,
,,,,,,,,2,2020-12-15_15h41.29.887,premce3DEU_ses-02_part-02_label-phase2,2020.1.2,Win32,60,left,2.16098,1,0.666405,0,17,17,71,1,stimuli/objects/tennisracket.jpg,right,new,232,,,,,,,,
,,,,,,,,2,2020-12-15_15h41.29.887,premce3DEU_ses-02_part-02_label-phase2,2020.1.2,Win32,60,right,1.004755,3,0.2803,0,18,18,34,1,stimuli/objects/shelves.jpg,left,old,195,,,,,,,,
,,,,,,,,2,2020-12-15_15h41.29.887,premce3DEU_ses-02_part-02_label-phase2,2020.1.2,Win32,60,right,1.127355,4,0.25639,0,19,19,69,1,stimuli/objects/bumpercar.jpg,right,new,230,,,,,,,,
,,,,,,,,2,2020-12-15_15h41.29.887,premce3DEU_ses-02_part-02_label-phase2,2020.1.2,Win32,60,right,1.107505,4,0.29686,0,20,20,129,1,stimuli/objects/escalator.jpg,left,old,290,,,,,,,,
,,,,,,,,2,2020-12-15_15h41.29.887,premce3DEU_ses-02_part-02_label-phase2,2020.1.2,Win32,60,right,1.767865,2,0.364255,0,21,21,68,1,stimuli/objects/drumset.jpg,right,new,229,,,,,,,,
,,,,,,,,2,2020-12-15_15h41.29.887,premce3DEU_ses-02_part-02_label-phase2,2020.1.2,Win32,60,right,1.023685,2,0.14368,0,22,22,108,1,stimuli/objects/cork02.jpg,left,old,269,,,,,,,,
,,,,,,,,2,2020-12-15_15h41.29.887,premce3DEU_ses-02_part-02_label-phase2,2020.1.2,Win32,60,left,0.68761,4,0.20104,0,23,23,94,1,stimuli/objects/scorpion.jpg,right,new,255,,,,,,,,
,,,,,,,,2,2020-12-15_15h41.29.887,premce3DEU_ses-02_part-02_label-phase2,2020.1.2,Win32,60,right,2.31886,2,0.66171,0,24,24,3,1,stimuli/objects/bathtub.jpg,left,old,164,,,,,,,,
,,,,,,,,2,2020-12-15_15h41.29.887,premce3DEU_ses-02_part-02_label-phase2,2020.1.2,Win32,60,left,1.157645,4,0.414295,0,25,25,28,1,stimuli/objects/car.jpg,left,old,189,,,,,,,,
,,,,,,,,2,2020-12-15_15h41.29.887,premce3DEU_ses-02_part-02_label-phase2,2020.1.2,Win32,60,right,1.459055,2,0.173015,0,26,26,61,1,stimuli/objects/parrot01.jpg,right,new,222,,,,,,,,
,,,,,,,,2,2020-12-15_15h41.29.887,premce3DEU_ses-02_part-02_label-phase2,2020.1.2,Win32,60,left,0.861345,3,0.05696,0,27,27,131,1,stimuli/objects/boxingglove01.jpg,right,new,292,,,,,,,,
,,,,,,,,2,2020-12-15_15h41.29.887,premce3DEU_ses-02_part-02_label-phase2,2020.1.2,Win32,60,left,0.812545,4,0.21442,0,28,28,22,1,stimuli/objects/crab01.jpg,left,old,183,,,,,,,,
,,,,,,,,2,2020-12-15_15h41.29.887,premce3DEU_ses-02_part-02_label-phase2,2020.1.2,Win32,60,right,1.195915,2,0.27285,0,29,29,148,1,stimuli/objects/snowglobe.jpg,left,old,309,,,,,,,,
,,,,,,,,2,2020-12-15_15h41.29.887,premce3DEU_ses-02_part-02_label-phase2,2020.1.2,Win32,60,right,1.334855,2,0.000775,0,30,30,79,1,stimuli/objects/polarbear.jpg,left,old,240,,,,,,,,
,,,,,,,,2,2020-12-15_15h41.29.887,premce3DEU_ses-02_part-02_label-phase2,2020.1.2,Win32,60,left,0.849135,2,0.203535,0,31,31,19,1,stimuli/objects/zipper.jpg,right,new,180,,,,,,,,
,,,,,,,,2,2020-12-15_15h41.29.887,premce3DEU_ses-02_part-02_label-phase2,2020.1.2,Win32,60,right,0.86841,1,0.208805,0,32,32,32,1,stimuli/objects/cross01.jpg,right,new,193,,,,,,,,
,,,,,,,,2,2020-12-15_15h41.29.887,premce3DEU_ses-02_part-02_label-phase2,2020.1.2,Win32,60,left,0.804165,4,0.46363,0,33,33,77,1,stimuli/objects/electricguitar01.jpg,left,old,238,,,,,,,,
,,,,,,,,2,2020-12-15_15h41.29.887,premce3DEU_ses-02_part-02_label-phase2,2020.1.2,Win32,60,right,0.969935,1,1.03127,0,34,34,93,1,stimuli/objects/slushiemachine.jpg,right,new,254,,,,,,,,
,,,,,,,,2,2020-12-15_15h41.29.887,premce3DEU_ses-02_part-02_label-phase2,2020.1.2,Win32,60,left,0.722675,2,0.004115,0,35,35,144,1,stimuli/objects/walkietalkie.jpg,right,new,305,,,,,,,,
,,,,,,,,2,2020-12-15_15h41.29.887,premce3DEU_ses-02_part-02_label-phase2,2020.1.2,Win32,60,left,0.684155,2,0.24663,0,36,36,113,1,stimuli/objects/bluejay.jpg,right,new,274,,,,,,,,
,,,,,,,,2,2020-12-15_15h41.29.887,premce3DEU_ses-02_part-02_label-phase2,2020.1.2,Win32,60,left,0.820735,4,0.29595,0,37,37,42,1,stimuli/objects/asianelephant.jpg,left,old,203,,,,,,,,
,,,,,,,,2,2020-12-15_15h41.29.887,premce3DEU_ses-02_part-02_label-phase2,2020.1.2,Win32,60,left,1.068685,2,0.213655,0,38,38,139,1,stimuli/objects/locomotive.jpg,left,old,300,,,,,,,,
,,,,,,,,2,2020-12-15_15h41.29.887,premce3DEU_ses-02_part-02_label-phase2,2020.1.2,Win32,60,left,0.73359,2,0.14719,0,39,39,59,1,stimuli/objects/nosmokingsign.jpg,right,new,220,,,,,,,,
,,,,,,,,2,2020-12-15_15h41.29.887,premce3DEU_ses-02_part-02_label-phase2,2020.1.2,Win32,60,left,0.8515,1,0.224275,0,40,40,106,1,stimuli/objects/squirrel.jpg,right,new,267,,,,,,,,
,,,,,,,,2,2020-12-15_15h41.29.887,premce3DEU_ses-02_part-02_label-phase2,2020.1.2,Win32,60,right,1.414455,3,0.31556,0,41,41,10,1,stimuli/objects/spicerack.jpg,left,old,171,,,,,,,,
,,,,,,,,2,2020-12-15_15h41.29.887,premce3DEU_ses-02_part-02_label-phase2,2020.1.2,Win32,60,left,0.83676,4,0.27907,0,42,42,40,1,stimuli/objects/beehive.jpg,right,new,201,,,,,,,,
,,,,,,,,2,2020-12-15_15h41.29.887,premce3DEU_ses-02_part-02_label-phase2,2020.1.2,Win32,60,left,1.14071,2,0.113005,0,43,43,86,1,stimuli/objects/trafficlight.jpg,left,old,247,,,,,,,,
,,,,,,,,2,2020-12-15_15h41.29.887,premce3DEU_ses-02_part-02_label-phase2,2020.1.2,Win32,60,left,0.948685,3,0.1468,0,44,44,16,1,stimuli/objects/dartboard.jpg,left,old,177,,,,,,,,
,,,,,,,,2,2020-12-15_15h41.29.887,premce3DEU_ses-02_part-02_label-phase2,2020.1.2,Win32,60,right,1.25076,2,0.593135,0,45,45,151,1,stimuli/objects/jellyfish.jpg,left,old,312,,,,,,,,
,,,,,,,,2,2020-12-15_15h41.29.887,premce3DEU_ses-02_part-02_label-phase2,2020.1.2,Win32,60,right,1.15274,4,0.228435,0,46,46,55,1,stimuli/objects/dogsled.jpg,left,old,216,,,,,,,,
,,,,,,,,2,2020-12-15_15h41.29.887,premce3DEU_ses-02_part-02_label-phase2,2020.1.2,Win32,60,left,1.36995,2,0.243375,0,47,47,6,1,stimuli/objects/popcorn.jpg,right,new,167,,,,,,,,
,,,,,,,,2,2020-12-15_15h41.29.887,premce3DEU_ses-02_part-02_label-phase2,2020.1.2,Win32,60,left,0.729545,4,0.27501,0,48,48,159,1,stimuli/objects/footballhelmet.jpg,left,old,320,,,,,,,,
,,,,,,,,2,2020-12-15_15h41.29.887,premce3DEU_ses-02_part-02_label-phase2,2020.1.2,Win32,60,left,0.87309,4,0.18236,0,49,49,87,1,stimuli/objects/chipmunk.jpg,left,old,248,,,,,,,,
,,,,,,,,2,2020-12-15_15h41.29.887,premce3DEU_ses-02_part-02_label-phase2,2020.1.2,Win32,60,left,0.896285,4,0.24196,0,50,50,4,1,stimuli/objects/blender.jpg,left,old,165,,,,,,,,
,,,,,,,,2,2020-12-15_15h41.29.887,premce3DEU_ses-02_part-02_label-phase2,2020.1.2,Win32,60,left,0.820555,4,0.190715,0,51,51,158,1,stimuli/objects/bowrake.jpg,right,new,319,,,,,,,,
,,,,,,,,2,2020-12-15_15h41.29.887,premce3DEU_ses-02_part-02_label-phase2,2020.1.2,Win32,60,left,0.66142,4,0.17244,0,52,52,116,1,stimuli/objects/rollerblade.jpg,left,old,277,,,,,,,,
,,,,,,,,2,2020-12-15_15h41.29.887,premce3DEU_ses-02_part-02_label-phase2,2020.1.2,Win32,60,right,1.56895,3,0.479685,0,53,53,0,1,stimuli/objects/hulahoop.jpg,left,old,161,,,,,,,,
,,,,,,,,2,2020-12-15_15h41.29.887,premce3DEU_ses-02_part-02_label-phase2,2020.1.2,Win32,60,right,2.090845,2,0.226355,0,54,54,84,1,stimuli/objects/carbattery.jpg,right,new,245,,,,,,,,
,,,,,,,,2,2020-12-15_15h41.29.887,premce3DEU_ses-02_part-02_label-phase2,2020.1.2,Win32,60,left,0.785795,4,0.300835,0,55,55,67,1,stimuli/objects/snowshovel.jpg,left,old,228,,,,,,,,
,,,,,,,,2,2020-12-15_15h41.29.887,premce3DEU_ses-02_part-02_label-phase2,2020.1.2,Win32,60,right,0.86663,2,0.244355,0,56,56,63,1,stimuli/objects/pin.jpg,right,new,224,,,,,,,,
,,,,,,,,2,2020-12-15_15h41.29.887,premce3DEU_ses-02_part-02_label-phase2,2020.1.2,Win32,60,left,2.52611,1,0.19683,0,57,57,12,1,stimuli/objects/musicsheet.jpg,right,new,173,,,,,,,,
,,,,,,,,2,2020-12-15_15h41.29.887,premce3DEU_ses-02_part-02_label-phase2,2020.1.2,Win32,60,left,0.933595,3,0.21245,0,58,58,18,1,stimuli/objects/showerhead01.jpg,left,old,179,,,,,,,,
,,,,,,,,2,2020-12-15_15h41.29.887,premce3DEU_ses-02_part-02_label-phase2,2020.1.2,Win32,60,left,1.54065,3,0.180115,0,59,59,50,1,stimuli/objects/cowbell.jpg,right,new,211,,,,,,,,
,,,,,,,,2,2020-12-15_15h41.29.887,premce3DEU_ses-02_part-02_label-phase2,2020.1.2,Win32,60,left,0.702025,4,0.38668,0,60,60,114,1,stimuli/objects/cymbal.jpg,left,old,275,,,,,,,,
,,,,,,,,2,2020-12-15_15h41.29.887,premce3DEU_ses-02_part-02_label-phase2,2020.1.2,Win32,60,left,1.65867,3,0.847545,0,61,61,132,1,stimuli/objects/windshieldwiper02.jpg,left,old,293,,,,,,,,
,,,,,,,,2,2020-12-15_15h41.29.887,premce3DEU_ses-02_part-02_label-phase2,2020.1.2,Win32,60,left,0.789895,4,0.432835,0,62,62,41,1,stimuli/objects/zebra.jpg,left,old,202,,,,,,,,
,,,,,,,,2,2020-12-15_15h41.29.887,premce3DEU_ses-02_part-02_label-phase2,2020.1.2,Win32,60,right,1.108485,2,0.67859,0,63,63,9,1,stimuli/objects/flag.jpg,right,new,170,,,,,,,,
,,,,,,,,2,2020-12-15_15h41.29.887,premce3DEU_ses-02_part-02_label-phase2,2020.1.2,Win32,60,left,0.99063,4,0.429535,0,64,64,100,1,stimuli/objects/doubledoors.jpg,left,old,261,,,,,,,,
,,,,,,,,2,2020-12-15_15h41.29.887,premce3DEU_ses-02_part-02_label-phase2,2020.1.2,Win32,60,left,0.720295,4,0.1886,0,65,65,73,1,stimuli/objects/barrel01.jpg,left,old,234,,,,,,,,
,,,,,,,,2,2020-12-15_15h41.29.887,premce3DEU_ses-02_part-02_label-phase2,2020.1.2,Win32,60,left,0.826115,3,0.26203,0,66,66,149,1,stimuli/objects/mortarandpestle.jpg,right,new,310,,,,,,,,
,,,,,,,,2,2020-12-15_15h41.29.887,premce3DEU_ses-02_part-02_label-phase2,2020.1.2,Win32,60,left,1.019105,2,0.31094,0,67,67,74,1,stimuli/objects/turnstile.jpg,right,new,235,,,,,,,,
,,,,,,,,2,2020-12-15_15h41.29.887,premce3DEU_ses-02_part-02_label-phase2,2020.1.2,Win32,60,left,0.78512,1,0.50989,0,68,68,105,1,stimuli/objects/beerbottle.jpg,left,old,266,,,,,,,,
,,,,,,,,2,2020-12-15_15h41.29.887,premce3DEU_ses-02_part-02_label-phase2,2020.1.2,Win32,60,left,0.994965,4,0.297225,0,69,69,97,1,stimuli/objects/greywolf.jpg,left,old,258,,,,,,,,
,,,,,,,,2,2020-12-15_15h41.29.887,premce3DEU_ses-02_part-02_label-phase2,2020.1.2,Win32,60,left,1.02302,4,0.28043,0,70,70,133,1,stimuli/objects/kiwi03.jpg,right,new,294,,,,,,,,
,,,,,,,,2,2020-12-15_15h41.29.887,premce3DEU_ses-02_part-02_label-phase2,2020.1.2,Win32,60,left,1.15322,4,0.197775,0,71,71,60,1,stimuli/objects/hammerheadshark.jpg,right,new,221,,,,,,,,
,,,,,,,,2,2020-12-15_15h41.29.887,premce3DEU_ses-02_part-02_label-phase2,2020.1.2,Win32,60,left,1.070705,4,0.17757,0,72,72,96,1,stimuli/objects/hockeystick.jpg,left,old,257,,,,,,,,
,,,,,,,,2,2020-12-15_15h41.29.887,premce3DEU_ses-02_part-02_label-phase2,2020.1.2,Win32,60,left,0.855765,4,0.61674,0,73,73,35,1,stimuli/objects/xylophone.jpg,left,old,196,,,,,,,,
,,,,,,,,2,2020-12-15_15h41.29.887,premce3DEU_ses-02_part-02_label-phase2,2020.1.2,Win32,60,left,0.700285,1,0.50457,0,74,74,56,1,stimuli/objects/toyanimal05.jpg,left,old,217,,,,,,,,
,,,,,,,,2,2020-12-15_15h41.29.887,premce3DEU_ses-02_part-02_label-phase2,2020.1.2,Win32,60,left,1.30309,1,0.21548,0,75,75,110,1,stimuli/objects/funnel.jpg,right,new,271,,,,,,,,
,,,,,,,,2,2020-12-15_15h41.29.887,premce3DEU_ses-02_part-02_label-phase2,2020.1.2,Win32,60,right,1.20529,2,0.148185,0,76,76,81,1,stimuli/objects/raccoon.jpg,right,new,242,,,,,,,,
,,,,,,,,2,2020-12-15_15h41.29.887,premce3DEU_ses-02_part-02_label-phase2,2020.1.2,Win32,60,right,1.17514,3,0.334425,0,77,77,146,1,stimuli/objects/tie02.jpg,left,old,307,,,,,,,,
,,,,,,,,2,2020-12-15_15h41.29.887,premce3DEU_ses-02_part-02_label-phase2,2020.1.2,Win32,60,left,0.768135,3,0.34851,0,78,78,82,1,stimuli/objects/duck01.jpg,left,old,243,,,,,,,,
,,,,,,,,2,2020-12-15_15h41.29.887,premce3DEU_ses-02_part-02_label-phase2,2020.1.2,Win32,60,left,0.91044,4,0.280095,0,79,79,123,1,stimuli/objects/ironingboard01.jpg,left,old,284,,,,,,,,
,,,,,,,,2,2020-12-15_15h41.29.887,premce3DEU_ses-02_part-02_label-phase2,2020.1.2,Win32,60,left,1.371625,4,0.246765,0,80,80,152,1,stimuli/objects/harmonica.jpg,right,new,313,,,,,,,,
,,,,,,,,2,2020-12-15_15h41.29.887,premce3DEU_ses-02_part-02_label-phase2,2020.1.2,Win32,60,left,0.673265,1,0.34919,0,81,81,130,1,stimuli/objects/pirateflag.jpg,left,old,291,,,,,,,,
,,,,,,,,2,2020-12-15_15h41.29.887,premce3DEU_ses-02_part-02_label-phase2,2020.1.2,Win32,60,right,1.47717,1,0.29167,0,82,82,101,1,stimuli/objects/microphone01.jpg,right,new,262,,,,,,,,
,,,,,,,,2,2020-12-15_15h41.29.887,premce3DEU_ses-02_part-02_label-phase2,2020.1.2,Win32,60,right,1.39492,3,0.265935,0,83,83,147,1,stimuli/objects/bleachers.jpg,left,old,308,,,,,,,,
,,,,,,,,2,2020-12-15_15h41.29.887,premce3DEU_ses-02_part-02_label-phase2,2020.1.2,Win32,60,right,1.610265,4,0.44469,0,84,84,154,1,stimuli/objects/frisbee.jpg,left,old,315,,,,,,,,
,,,,,,,,2,2020-12-15_15h41.29.887,premce3DEU_ses-02_part-02_label-phase2,2020.1.2,Win32,60,right,1.36939,2,0.136095,0,85,85,45,1,stimuli/objects/siamesecat.jpg,right,new,206,,,,,,,,
,,,,,,,,2,2020-12-15_15h41.29.887,premce3DEU_ses-02_part-02_label-phase2,2020.1.2,Win32,60,right,2.19506,1,0.59593,0,86,86,30,1,stimuli/objects/key07.jpg,left,old,191,,,,,,,,
,,,,,,,,2,2020-12-15_15h41.29.887,premce3DEU_ses-02_part-02_label-phase2,2020.1.2,Win32,60,right,1.6785,4,0.28133,0,87,87,14,1,stimuli/objects/ipad02.jpg,left,old,175,,,,,,,,
,,,,,,,,2,2020-12-15_15h41.29.887,premce3DEU_ses-02_part-02_label-phase2,2020.1.2,Win32,60,right,1.21168,4,0.31016,0,88,88,117,1,stimuli/objects/fingerprint.jpg,left,old,278,,,,,,,,
,,,,,,,,2,2020-12-15_15h41.29.887,premce3DEU_ses-02_part-02_label-phase2,2020.1.2,Win32,60,right,1.43944,4,0.29634,0,89,89,49,1,stimuli/objects/surfboard.jpg,left,old,210,,,,,,,,
,,,,,,,,2,2020-12-15_15h41.29.887,premce3DEU_ses-02_part-02_label-phase2,2020.1.2,Win32,60,right,1.32215,1,0.430745,0,90,90,1,1,stimuli/objects/tent.jpg,left,old,162,,,,,,,,
,,,,,,,,2,2020-12-15_15h41.29.887,premce3DEU_ses-02_part-02_label-phase2,2020.1.2,Win32,60,left,0.7605,4,0.256425,0,91,91,15,1,stimuli/objects/stool01.jpg,left,old,176,,,,,,,,
,,,,,,,,2,2020-12-15_15h41.29.887,premce3DEU_ses-02_part-02_label-phase2,2020.1.2,Win32,60,left,0.806865,4,0.23581,0,92,92,89,1,stimuli/objects/cruiseship.jpg,left,old,250,,,,,,,,
,,,,,,,,2,2020-12-15_15h41.29.887,premce3DEU_ses-02_part-02_label-phase2,2020.1.2,Win32,60,right,2.039135,3,0.53112,0,93,93,142,1,stimuli/objects/lightswitch01.jpg,left,old,303,,,,,,,,
,,,,,,,,2,2020-12-15_15h41.29.887,premce3DEU_ses-02_part-02_label-phase2,2020.1.2,Win32,60,left,0.772375,3,0.194615,0,94,94,138,1,stimuli/objects/ladybug03.jpg,right,new,299,,,,,,,,
,,,,,,,,2,2020-12-15_15h41.29.887,premce3DEU_ses-02_part-02_label-phase2,2020.1.2,Win32,60,right,1.72513,4,0.299615,0,95,95,112,1,stimuli/objects/hotdog.jpg,left,old,273,,,,,,,,
,,,,,,,,2,2020-12-15_15h41.29.887,premce3DEU_ses-02_part-02_label-phase2,2020.1.2,Win32,60,right,1.80401,2,0.42702,0,96,96,153,1,stimuli/objects/fluorescentlightbulb.jpg,left,old,314,,,,,,,,
,,,,,,,,2,2020-12-15_15h41.29.887,premce3DEU_ses-02_part-02_label-phase2,2020.1.2,Win32,60,left,0.60867,4,0.264335,0,97,97,54,1,stimuli/objects/acousticguitar02.jpg,right,new,215,,,,,,,,
,,,,,,,,2,2020-12-15_15h41.29.887,premce3DEU_ses-02_part-02_label-phase2,2020.1.2,Win32,60,left,0.88873,4,0.2759,0,98,98,95,1,stimuli/objects/sealion.jpg,right,new,256,,,,,,,,
,,,,,,,,2,2020-12-15_15h41.29.887,premce3DEU_ses-02_part-02_label-phase2,2020.1.2,Win32,60,left,1.006,3,0.260165,0,99,99,115,1,stimuli/objects/witchhat.jpg,left,old,276,,,,,,,,
,,,,,,,,2,2020-12-15_15h41.29.887,premce3DEU_ses-02_part-02_label-phase2,2020.1.2,Win32,60,right,0.951635,4,0.2464,0,100,100,2,1,stimuli/objects/moon.jpg,left,old,163,,,,,,,,
,,,,,,,,2,2020-12-15_15h41.29.887,premce3DEU_ses-02_part-02_label-phase2,2020.1.2,Win32,60,right,0.95332,4,0.147185,0,101,101,109,1,stimuli/objects/spiderweb.jpg,right,new,270,,,,,,,,
,,,,,,,,2,2020-12-15_15h41.29.887,premce3DEU_ses-02_part-02_label-phase2,2020.1.2,Win32,60,left,2.186725,2,0.298955,0,102,102,145,1,stimuli/objects/rooster.jpg,right,new,306,,,,,,,,
,,,,,,,,2,2020-12-15_15h41.29.887,premce3DEU_ses-02_part-02_label-phase2,2020.1.2,Win32,60,right,1.52763,2,0.30143,0,103,103,20,1,stimuli/objects/toysoldier01b.jpg,right,new,181,,,,,,,,
,,,,,,,,2,2020-12-15_15h41.29.887,premce3DEU_ses-02_part-02_label-phase2,2020.1.2,Win32,60,right,2.005955,1,0.234625,0,104,104,39,1,stimuli/objects/desktopcomputer.jpg,left,old,200,,,,,,,,
,,,,,,,,2,2020-12-15_15h41.29.887,premce3DEU_ses-02_part-02_label-phase2,2020.1.2,Win32,60,left,1.240695,4,0.51276,0,105,105,24,1,stimuli/objects/jaguar.jpg,left,old,185,,,,,,,,
,,,,,,,,2,2020-12-15_15h41.29.887,premce3DEU_ses-02_part-02_label-phase2,2020.1.2,Win32,60,left,1.306165,1,0.39941,0,106,106,31,1,stimuli/objects/horseshoe.jpg,right,new,192,,,,,,,,
,,,,,,,,2,2020-12-15_15h41.29.887,premce3DEU_ses-02_part-02_label-phase2,2020.1.2,Win32,60,left,0.836495,4,0.29233,0,107,107,107,1,stimuli/objects/tambourine03.jpg,right,new,268,,,,,,,,
,,,,,,,,2,2020-12-15_15h41.29.887,premce3DEU_ses-02_part-02_label-phase2,2020.1.2,Win32,60,left,1.09381,4,0.264265,0,108,108,85,1,stimuli/objects/skiboot01a.jpg,left,old,246,,,,,,,,
,,,,,,,,2,2020-12-15_15h41.29.887,premce3DEU_ses-02_part-02_label-phase2,2020.1.2,Win32,60,left,0.80014,4,0.235955,0,109,109,5,1,stimuli/objects/wheelchair.jpg,left,old,166,,,,,,,,
,,,,,,,,2,2020-12-15_15h41.29.887,premce3DEU_ses-02_part-02_label-phase2,2020.1.2,Win32,60,right,2.03292,1,0.225465,0,110,110,52,1,stimuli/objects/acorn.jpg,left,old,213,,,,,,,,
,,,,,,,,2,2020-12-15_15h41.29.887,premce3DEU_ses-02_part-02_label-phase2,2020.1.2,Win32,60,right,1.60181,4,0.32827,0,111,111,48,1,stimuli/objects/rubikcube.jpg,right,new,209,,,,,,,,
,,,,,,,,2,2020-12-15_15h41.29.887,premce3DEU_ses-02_part-02_label-phase2,2020.1.2,Win32,60,right,1.04796,4,0.20109,0,112,112,122,1,stimuli/objects/lip.jpg,right,new,283,,,,,,,,
,,,,,,,,2,2020-12-15_15h41.29.887,premce3DEU_ses-02_part-02_label-phase2,2020.1.2,Win32,60,left,0.714605,4,0.24361,0,113,113,26,1,stimuli/objects/schoolbus.jpg,right,new,187,,,,,,,,
,,,,,,,,2,2020-12-15_15h41.29.887,premce3DEU_ses-02_part-02_label-phase2,2020.1.2,Win32,60,right,1.139995,2,0.21837,0,114,114,135,1,stimuli/objects/penguin.jpg,right,new,296,,,,,,,,
,,,,,,,,2,2020-12-15_15h41.29.887,premce3DEU_ses-02_part-02_label-phase2,2020.1.2,Win32,60,left,1.106865,4,0.266215,0,115,115,156,1,stimuli/objects/shovel01.jpg,left,old,317,,,,,,,,
,,,,,,,,2,2020-12-15_15h41.29.887,premce3DEU_ses-02_part-02_label-phase2,2020.1.2,Win32,60,right,1.434545,3,0.15732,0,116,116,8,1,stimuli/objects/cloud.jpg,left,old,169,,,,,,,,
,,,,,,,,2,2020-12-15_15h41.29.887,premce3DEU_ses-02_part-02_label-phase2,2020.1.2,Win32,60,right,1.017135,2,0.44471,0,117,117,78,1,stimuli/objects/hockeypuck.jpg,left,old,239,,,,,,,,
,,,,,,,,2,2020-12-15_15h41.29.887,premce3DEU_ses-02_part-02_label-phase2,2020.1.2,Win32,60,right,3.425745,2,0.60854,0,118,118,72,1,stimuli/objects/doghouse.jpg,left,old,233,,,,,,,,
,,,,,,,,2,2020-12-15_15h41.29.887,premce3DEU_ses-02_part-02_label-phase2,2020.1.2,Win32,60,right,1.20508,4,0.336845,0,119,119,124,1,stimuli/objects/swing.jpg,right,new,285,,,,,,,,
,,,,,,,,2,2020-12-15_15h41.29.887,premce3DEU_ses-02_part-02_label-phase2,2020.1.2,Win32,60,right,0.984675,2,0.448795,0,120,120,118,1,stimuli/objects/wallclock.jpg,right,new,279,,,,,,,,
,,,,,,,,2,2020-12-15_15h41.29.887,premce3DEU_ses-02_part-02_label-phase2,2020.1.2,Win32,60,right,1.79159,4,0.33902,0,121,121,121,1,stimuli/objects/shield02.jpg,right,new,282,,,,,,,,
,,,,,,,,2,2020-12-15_15h41.29.887,premce3DEU_ses-02_part-02_label-phase2,2020.1.2,Win32,60,left,0.65059,4,0.41077,0,122,122,104,1,stimuli/objects/rockingchair.jpg,left,old,265,,,,,,,,
,,,,,,,,2,2020-12-15_15h41.29.887,premce3DEU_ses-02_part-02_label-phase2,2020.1.2,Win32,60,right,1.521775,2,0.22635,0,123,123,17,1,stimuli/objects/saltshaker03a.jpg,right,new,178,,,,,,,,
,,,,,,,,2,2020-12-15_15h41.29.887,premce3DEU_ses-02_part-02_label-phase2,2020.1.2,Win32,60,left,0.76527,4,0.30974,0,124,124,47,1,stimuli/objects/candycane01a.jpg,left,old,208,,,,,,,,
,,,,,,,,2,2020-12-15_15h41.29.887,premce3DEU_ses-02_part-02_label-phase2,2020.1.2,Win32,60,right,0.81328,2,0.16586,0,125,125,127,1,stimuli/objects/shelf.jpg,right,new,288,,,,,,,,
,,,,,,,,2,2020-12-15_15h41.29.887,premce3DEU_ses-02_part-02_label-phase2,2020.1.2,Win32,60,left,1.63158,4,0.469695,0,126,126,51,1,stimuli/objects/kangaroo01.jpg,right,new,212,,,,,,,,
,,,,,,,,2,2020-12-15_15h41.29.887,premce3DEU_ses-02_part-02_label-phase2,2020.1.2,Win32,60,left,0.846935,4,0.27805,0,127,127,125,1,stimuli/objects/whiteout.jpg,left,old,286,,,,,,,,
,,,,,,,,2,2020-12-15_15h41.29.887,premce3DEU_ses-02_part-02_label-phase2,2020.1.2,Win32,60,right,0.9383,2,0.051165,0,128,128,157,1,stimuli/objects/eagle.jpg,right,new,318,,,,,,,,
,,,,,,,,2,2020-12-15_15h41.29.887,premce3DEU_ses-02_part-02_label-phase2,2020.1.2,Win32,60,left,0.9167,4,0.08675,0,129,129,128,1,stimuli/objects/chime.jpg,left,old,289,,,,,,,,
,,,,,,,,2,2020-12-15_15h41.29.887,premce3DEU_ses-02_part-02_label-phase2,2020.1.2,Win32,60,left,0.69446,4,0.157525,0,130,130,75,1,stimuli/objects/bookshelf.jpg,left,old,236,,,,,,,,
,,,,,,,,2,2020-12-15_15h41.29.887,premce3DEU_ses-02_part-02_label-phase2,2020.1.2,Win32,60,right,0.853015,1,0.19994,0,131,131,33,1,stimuli/objects/noparkingsign.jpg,right,new,194,,,,,,,,
,,,,,,,,2,2020-12-15_15h41.29.887,premce3DEU_ses-02_part-02_label-phase2,2020.1.2,Win32,60,right,1.542835,4,0.12965,0,132,132,90,1,stimuli/objects/battleaxe.jpg,left,old,251,,,,,,,,
,,,,,,,,2,2020-12-15_15h41.29.887,premce3DEU_ses-02_part-02_label-phase2,2020.1.2,Win32,60,left,0.73698,3,0.27714,0,133,133,25,1,stimuli/objects/scooter.jpg,right,new,186,,,,,,,,
,,,,,,,,2,2020-12-15_15h41.29.887,premce3DEU_ses-02_part-02_label-phase2,2020.1.2,Win32,60,left,0.58343,4,0.344335,0,134,134,136,1,stimuli/objects/mouse.jpg,right,new,297,,,,,,,,
,,,,,,,,2,2020-12-15_15h41.29.887,premce3DEU_ses-02_part-02_label-phase2,2020.1.2,Win32,60,left,1.10554,4,0.06508,0,135,135,36,1,stimuli/objects/sandcastle.jpg,left,old,197,,,,,,,,
,,,,,,,,2,2020-12-15_15h41.29.887,premce3DEU_ses-02_part-02_label-phase2,2020.1.2,Win32,60,left,0.584945,4,0.243555,0,136,136,44,1,stimuli/objects/donut.jpg,left,old,205,,,,,,,,
,,,,,,,,2,2020-12-15_15h41.29.887,premce3DEU_ses-02_part-02_label-phase2,2020.1.2,Win32,60,left,1.32285,1,0.07967,0,137,137,70,1,stimuli/objects/cormorant.jpg,right,new,231,,,,,,,,
,,,,,,,,2,2020-12-15_15h41.29.887,premce3DEU_ses-02_part-02_label-phase2,2020.1.2,Win32,60,left,2.070695,1,0.38212,0,138,138,98,1,stimuli/objects/cashregister01.jpg,left,old,259,,,,,,,,
,,,,,,,,2,2020-12-15_15h41.29.887,premce3DEU_ses-02_part-02_label-phase2,2020.1.2,Win32,60,right,0.737225,2,0.275265,0,139,139,27,1,stimuli/objects/tombstone.jpg,right,new,188,,,,,,,,
,,,,,,,,2,2020-12-15_15h41.29.887,premce3DEU_ses-02_part-02_label-phase2,2020.1.2,Win32,60,right,1.29584,2,0.161305,0,140,140,62,1,stimuli/objects/painting.jpg,right,new,223,,,,,,,,
,,,,,,,,2,2020-12-15_15h41.29.887,premce3DEU_ses-02_part-02_label-phase2,2020.1.2,Win32,60,left,1.951425,1,0.310875,0,141,141,88,1,stimuli/objects/toilet.jpg,right,new,249,,,,,,,,
,,,,,,,,2,2020-12-15_15h41.29.887,premce3DEU_ses-02_part-02_label-phase2,2020.1.2,Win32,60,left,0.83348,1,0.26827,0,142,142,21,1,stimuli/objects/gorilla.jpg,right,new,182,,,,,,,,
,,,,,,,,2,2020-12-15_15h41.29.887,premce3DEU_ses-02_part-02_label-phase2,2020.1.2,Win32,60,left,1.25158,3,0.54809,0,143,143,64,1,stimuli/objects/trojanhorse.jpg,right,new,225,,,,,,,,
,,,,,,,,2,2020-12-15_15h41.29.887,premce3DEU_ses-02_part-02_label-phase2,2020.1.2,Win32,60,left,0.957885,2,0.084405,0,144,144,102,1,stimuli/objects/baseballglove.jpg,left,old,263,,,,,,,,
,,,,,,,,2,2020-12-15_15h41.29.887,premce3DEU_ses-02_part-02_label-phase2,2020.1.2,Win32,60,right,0.7526,2,0.114385,0,145,145,53,1,stimuli/objects/parachute.jpg,right,new,214,,,,,,,,
,,,,,,,,2,2020-12-15_15h41.29.887,premce3DEU_ses-02_part-02_label-phase2,2020.1.2,Win32,60,left,1.279975,2,0.359345,0,146,146,66,1,stimuli/objects/tricornhat.jpg,right,new,227,,,,,,,,
,,,,,,,,2,2020-12-15_15h41.29.887,premce3DEU_ses-02_part-02_label-phase2,2020.1.2,Win32,60,right,1.40781,3,0.274705,0,147,147,143,1,stimuli/objects/taxisign.jpg,right,new,304,,,,,,,,
,,,,,,,,2,2020-12-15_15h41.29.887,premce3DEU_ses-02_part-02_label-phase2,2020.1.2,Win32,60,left,0.63527,4,0.34716,0,148,148,119,1,stimuli/objects/sandbarshark.jpg,right,new,280,,,,,,,,
,,,,,,,,2,2020-12-15_15h41.29.887,premce3DEU_ses-02_part-02_label-phase2,2020.1.2,Win32,60,left,1.68333,1,0.076605,0,149,149,150,1,stimuli/objects/strap.jpg,right,new,311,,,,,,,,
,,,,,,,,2,2020-12-15_15h41.29.887,premce3DEU_ses-02_part-02_label-phase2,2020.1.2,Win32,60,left,1.17205,4,0.308385,0,150,150,43,1,stimuli/objects/poolcue.jpg,right,new,204,,,,,,,,
,,,,,,,,2,2020-12-15_15h41.29.887,premce3DEU_ses-02_part-02_label-phase2,2020.1.2,Win32,60,left,0.876085,3,0.28044,0,151,151,7,1,stimuli/objects/bolt01a.jpg,left,old,168,,,,,,,,
,,,,,,,,2,2020-12-15_15h41.29.887,premce3DEU_ses-02_part-02_label-phase2,2020.1.2,Win32,60,left,0.706125,4,0.16731,0,152,152,103,1,stimuli/objects/seagull.jpg,left,old,264,,,,,,,,
,,,,,,,,2,2020-12-15_15h41.29.887,premce3DEU_ses-02_part-02_label-phase2,2020.1.2,Win32,60,left,0.74901,4,0.45623,0,153,153,141,1,stimuli/objects/gong.jpg,left,old,302,,,,,,,,
,,,,,,,,2,2020-12-15_15h41.29.887,premce3DEU_ses-02_part-02_label-phase2,2020.1.2,Win32,60,right,1.22257,2,0.211935,0,154,154,83,1,stimuli/objects/recyclingbin.jpg,left,old,244,,,,,,,,
,,,,,,,,2,2020-12-15_15h41.29.887,premce3DEU_ses-02_part-02_label-phase2,2020.1.2,Win32,60,right,0.83573,4,0.26257,0,155,155,137,1,stimuli/objects/waterfall.jpg,right,new,298,,,,,,,,
,,,,,,,,2,2020-12-15_15h41.29.887,premce3DEU_ses-02_part-02_label-phase2,2020.1.2,Win32,60,right,0.993265,4,0.22404,0,156,156,120,1,stimuli/objects/airhockeytable.jpg,right,new,281,,,,,,,,
,,,,,,,,2,2020-12-15_15h41.29.887,premce3DEU_ses-02_part-02_label-phase2,2020.1.2,Win32,60,left,1.128015,4,0.30902,0,157,157,134,1,stimuli/objects/bikelock.jpg,right,new,295,,,,,,,,
,,,,,,,,2,2020-12-15_15h41.29.887,premce3DEU_ses-02_part-02_label-phase2,2020.1.2,Win32,60,right,2.714285,3,0.274775,0,158,158,29,1,stimuli/objects/steeringwheel.jpg,right,new,190,,,,,,,,
,,,,,,,,2,2020-12-15_15h41.29.887,premce3DEU_ses-02_part-02_label-phase2,2020.1.2,Win32,60,left,0.82916,4,0.202065,0,159,159,140,1,stimuli/objects/treadmill.jpg,left,old,301,,,,,,,,
,,,,,,,,2,2020-12-15_15h41.29.887,premce3DEU_ses-02_part-02_label-phase2,2020.1.2,Win32,60,,,,,,,,,,,,,,space,24.53655,0,0,0,1,1,ImagesforRecog2.csv
,,,,,,,,2,2020-12-15_15h41.29.887,premce3DEU_ses-02_part-02_label-phase2,2020.1.2,Win32,60,left,1.128445,3,0.31217,0,0,0,12,1,stimuli/objects/pigeon.jpg,right,new,13,,,,,,,,
,,,,,,,,2,2020-12-15_15h41.29.887,premce3DEU_ses-02_part-02_label-phase2,2020.1.2,Win32,60,right,1.024025,1,0.417005,0,1,1,61,1,stimuli/objects/jokercard.jpg,left,old,62,,,,,,,,
,,,,,,,,2,2020-12-15_15h41.29.887,premce3DEU_ses-02_part-02_label-phase2,2020.1.2,Win32,60,left,0.952545,4,0.43476,0,2,2,110,1,stimuli/objects/foosballtable.jpg,right,new,111,,,,,,,,
,,,,,,,,2,2020-12-15_15h41.29.887,premce3DEU_ses-02_part-02_label-phase2,2020.1.2,Win32,60,right,1.057565,4,0.08858,0,3,3,128,1,stimuli/objects/makiroll.jpg,right,new,129,,,,,,,,
,,,,,,,,2,2020-12-15_15h41.29.887,premce3DEU_ses-02_part-02_label-phase2,2020.1.2,Win32,60,left,0.670585,4,0.495325,0,4,4,40,1,stimuli/objects/cremebrulee.jpg,left,old,41,,,,,,,,
,,,,,,,,2,2020-12-15_15h41.29.887,premce3DEU_ses-02_part-02_label-phase2,2020.1.2,Win32,60,left,1.08184,4,0.130885,0,5,5,129,1,stimuli/objects/lawnmower.jpg,right,new,130,,,,,,,,
,,,,,,,,2,2020-12-15_15h41.29.887,premce3DEU_ses-02_part-02_label-phase2,2020.1.2,Win32,60,right,0.938995,2,0.115455,0,6,6,74,1,stimuli/objects/windturbine.jpg,left,old,75,,,,,,,,
,,,,,,,,2,2020-12-15_15h41.29.887,premce3DEU_ses-02_part-02_label-phase2,2020.1.2,Win32,60,left,0.652775,3,0.314335,0,7,7,75,1,stimuli/objects/barn.jpg,left,old,76,,,,,,,,
,,,,,,,,2,2020-12-15_15h41.29.887,premce3DEU_ses-02_part-02_label-phase2,2020.1.2,Win32,60,right,1.447835,4,0.36075,0,8,8,72,1,stimuli/objects/totempole.jpg,right,new,73,,,,,,,,
,,,,,,,,2,2020-12-15_15h41.29.887,premce3DEU_ses-02_part-02_label-phase2,2020.1.2,Win32,60,left,0.808595,2,0.0841,0,9,9,98,1,stimuli/objects/handbrush02.jpg,left,old,99,,,,,,,,
,,,,,,,,2,2020-12-15_15h41.29.887,premce3DEU_ses-02_part-02_label-phase2,2020.1.2,Win32,60,right,1.51039,3,0.308645,0,10,10,99,1,stimuli/objects/waterfountain02.jpg,left,old,100,,,,,,,,
,,,,,,,,2,2020-12-15_15h41.29.887,premce3DEU_ses-02_part-02_label-phase2,2020.1.2,Win32,60,left,0.740705,1,1.13188,0,11,11,145,1,stimuli/objects/church.jpg,right,new,146,,,,,,,,
,,,,,,,,2,2020-12-15_15h41.29.887,premce3DEU_ses-02_part-02_label-phase2,2020.1.2,Win32,60,left,0.72183,1,0.08955,0,12,12,79,1,stimuli/objects/callbell.jpg,left,old,80,,,,,,,,
,,,,,,,,2,2020-12-15_15h41.29.887,premce3DEU_ses-02_part-02_label-phase2,2020.1.2,Win32,60,right,0.824535,2,0.150935,0,13,13,16,1,stimuli/objects/cactus.jpg,left,old,17,,,,,,,,
,,,,,,,,2,2020-12-15_15h41.29.887,premce3DEU_ses-02_part-02_label-phase2,2020.1.2,Win32,60,right,1.101365,1,0.171435,0,14,14,109,1,stimuli/objects/webcam.jpg,right,new,110,,,,,,,,
,,,,,,,,2,2020-12-15_15h41.29.887,premce3DEU_ses-02_part-02_label-phase2,2020.1.2,Win32,60,left,0.709485,1,0.26378,0,15,15,41,1,stimuli/objects/faxmachine.jpg,right,new,42,,,,,,,,
,,,,,,,,2,2020-12-15_15h41.29.887,premce3DEU_ses-02_part-02_label-phase2,2020.1.2,Win32,60,left,1.718165,3,0.33338,0,16,16,76,1,stimuli/objects/morningstar.jpg,right,new,77,,,,,,,,
,,,,,,,,2,2020-12-15_15h41.29.887,premce3DEU_ses-02_part-02_label-phase2,2020.1.2,Win32,60,left,0.84654,3,0.2491,0,17,17,86,1,stimuli/objects/chimney.jpg,right,new,87,,,,,,,,
,,,,,,,,2,2020-12-15_15h41.29.887,premce3DEU_ses-02_part-02_label-phase2,2020.1.2,Win32,60,left,0.771495,4,0.25999,0,18,18,49,1,stimuli/objects/triangle.jpg,left,old,50,,,,,,,,
,,,,,,,,2,2020-12-15_15h41.29.887,premce3DEU_ses-02_part-02_label-phase2,2020.1.2,Win32,60,left,0.90767,4,0.2278,0,19,19,112,1,stimuli/objects/tank.jpg,right,new,113,,,,,,,,
,,,,,,,,2,2020-12-15_15h41.29.887,premce3DEU_ses-02_part-02_label-phase2,2020.1.2,Win32,60,left,0.680075,4,0.211135,0,20,20,83,1,stimuli/objects/flugglehorn.jpg,right,new,84,,,,,,,,
,,,,,,,,2,2020-12-15_15h41.29.887,premce3DEU_ses-02_part-02_label-phase2,2020.1.2,Win32,60,left,0.83274,4,0.11023,0,21,21,157,1,stimuli/objects/cookingpot.jpg,left,old,158,,,,,,,,
,,,,,,,,2,2020-12-15_15h41.29.887,premce3DEU_ses-02_part-02_label-phase2,2020.1.2,Win32,60,left,1.208385,2,0.28589,0,22,22,15,1,stimuli/objects/dromedary.jpg,left,old,16,,,,,,,,
,,,,,,,,2,2020-12-15_15h41.29.887,premce3DEU_ses-02_part-02_label-phase2,2020.1.2,Win32,60,left,0.69302,1,0.486555,0,23,23,62,1,stimuli/objects/trophy01.jpg,left,old,63,,,,,,,,
,,,,,,,,2,2020-12-15_15h41.29.887,premce3DEU_ses-02_part-02_label-phase2,2020.1.2,Win32,60,left,0.985325,4,0.249245,0,24,24,152,1,stimuli/objects/urinal.jpg,left,old,153,,,,,,,,
,,,,,,,,2,2020-12-15_15h41.29.887,premce3DEU_ses-02_part-02_label-phase2,2020.1.2,Win32,60,left,1.63893,2,0.281955,0,25,25,20,1,stimuli/objects/accordion01.jpg,right,new,21,,,,,,,,
,,,,,,,,2,2020-12-15_15h41.29.887,premce3DEU_ses-02_part-02_label-phase2,2020.1.2,Win32,60,right,0.64579,3,0.449755,0,26,26,148,1,stimuli/objects/peacock.jpg,right,new,149,,,,,,,,
,,,,,,,,2,2020-12-15_15h41.29.887,premce3DEU_ses-02_part-02_label-phase2,2020.1.2,Win32,60,left,0.97753,1,0.27193,0,27,27,26,1,stimuli/objects/sledgehammer.jpg,right,new,27,,,,,,,,
,,,,,,,,2,2020-12-15_15h41.29.887,premce3DEU_ses-02_part-02_label-phase2,2020.1.2,Win32,60,left,0.8171,1,0.534815,0,28,28,5,1,stimuli/objects/horse.jpg,left,old,6,,,,,,,,
,,,,,,,,2,2020-12-15_15h41.29.887,premce3DEU_ses-02_part-02_label-phase2,2020.1.2,Win32,60,left,0.93923,4,0.182995,0,29,29,0,1,stimuli/objects/treestump.jpg,left,old,1,,,,,,,,
,,,,,,,,2,2020-12-15_15h41.29.887,premce3DEU_ses-02_part-02_label-phase2,2020.1.2,Win32,60,right,1.307925,3,0.429055,0,30,30,111,1,stimuli/objects/platypus.jpg,right,new,112,,,,,,,,
,,,,,,,,2,2020-12-15_15h41.29.887,premce3DEU_ses-02_part-02_label-phase2,2020.1.2,Win32,60,left,0.736965,1,0.68412,0,31,31,2,1,stimuli/objects/table01.jpg,left,old,3,,,,,,,,
,,,,,,,,2,2020-12-15_15h41.29.887,premce3DEU_ses-02_part-02_label-phase2,2020.1.2,Win32,60,left,0.89256,4,0.659935,0,32,32,55,1,stimuli/objects/drumstick.jpg,right,new,56,,,,,,,,
,,,,,,,,2,2020-12-15_15h41.29.887,premce3DEU_ses-02_part-02_label-phase2,2020.1.2,Win32,60,left,1.203645,4,0.231285,0,33,33,71,1,stimuli/objects/bed.jpg,right,new,72,,,,,,,,
,,,,,,,,2,2020-12-15_15h41.29.887,premce3DEU_ses-02_part-02_label-phase2,2020.1.2,Win32,60,left,1.3466,4,0.318365,0,34,34,78,1,stimuli/objects/monarchbutterfly.jpg,left,old,79,,,,,,,,
,,,,,,,,2,2020-12-15_15h41.29.887,premce3DEU_ses-02_part-02_label-phase2,2020.1.2,Win32,60,left,1.493715,2,0.857305,0,35,35,136,1,stimuli/objects/wheat.jpg,right,new,137,,,,,,,,
,,,,,,,,2,2020-12-15_15h41.29.887,premce3DEU_ses-02_part-02_label-phase2,2020.1.2,Win32,60,right,0.89102,3,0.16124,0,36,36,59,1,stimuli/objects/birdhouse.jpg,right,new,60,,,,,,,,
,,,,,,,,2,2020-12-15_15h41.29.887,premce3DEU_ses-02_part-02_label-phase2,2020.1.2,Win32,60,left,1.10483,1,0.258705,0,37,37,35,1,stimuli/objects/skihelmet01.jpg,left,old,36,,,,,,,,
,,,,,,,,2,2020-12-15_15h41.29.887,premce3DEU_ses-02_part-02_label-phase2,2020.1.2,Win32,60,right,1.10641,3,0.58167,0,38,38,90,1,stimuli/objects/trailer.jpg,right,new,91,,,,,,,,
,,,,,,,,2,2020-12-15_15h41.29.887,premce3DEU_ses-02_part-02_label-phase2,2020.1.2,Win32,60,right,0.883745,4,0.38142,0,39,39,25,1,stimuli/objects/honeycomb.jpg,right,new,26,,,,,,,,
,,,,,,,,2,2020-12-15_15h41.29.887,premce3DEU_ses-02_part-02_label-phase2,2020.1.2,Win32,60,right,0.804975,2,0.365355,0,40,40,106,1,stimuli/objects/helicopter.jpg,right,new,107,,,,,,,,
,,,,,,,,2,2020-12-15_15h41.29.887,premce3DEU_ses-02_part-02_label-phase2,2020.1.2,Win32,60,right,0.90095,3,0.29846,0,41,41,132,1,stimuli/objects/shower.jpg,left,old,133,,,,,,,,
,,,,,,,,2,2020-12-15_15h41.29.887,premce3DEU_ses-02_part-02_label-phase2,2020.1.2,Win32,60,right,0.973305,2,0.248865,0,42,42,38,1,stimuli/objects/pig.jpg,right,new,39,,,,,,,,
,,,,,,,,2,2020-12-15_15h41.29.887,premce3DEU_ses-02_part-02_label-phase2,2020.1.2,Win32,60,right,0.911835,2,0.301385,0,43,43,87,1,stimuli/objects/filingcabinet.jpg,left,old,88,,,,,,,,
,,,,,,,,2,2020-12-15_15h41.29.887,premce3DEU_ses-02_part-02_label-phase2,2020.1.2,Win32,60,left,0.780345,1,0.29914,0,44,44,11,1,stimuli/objects/cannon.jpg,left,old,12,,,,,,,,
,,,,,,,,2,2020-12-15_15h41.29.887,premce3DEU_ses-02_part-02_label-phase2,2020.1.2,Win32,60,right,1.648455,2,0.433845,0,45,45,37,1,stimuli/objects/golfball.jpg,left,old,38,,,,,,,,
,,,,,,,,2,2020-12-15_15h41.29.887,premce3DEU_ses-02_part-02_label-phase2,2020.1.2,Win32,60,right,1.024015,2,0.198515,0,46,46,36,1,stimuli/objects/christmaslights.jpg,left,old,37,,,,,,,,
,,,,,,,,2,2020-12-15_15h41.29.887,premce3DEU_ses-02_part-02_label-phase2,2020.1.2,Win32,60,left,0.636995,1,0.22462,0,47,47,69,1,stimuli/objects/granolabar01.jpg,left,old,70,,,,,,,,
,,,,,,,,2,2020-12-15_15h41.29.887,premce3DEU_ses-02_part-02_label-phase2,2020.1.2,Win32,60,left,0.79174,3,0.51578,0,48,48,3,1,stimuli/objects/vacuumcleaner01.jpg,left,old,4,,,,,,,,
,,,,,,,,2,2020-12-15_15h41.29.887,premce3DEU_ses-02_part-02_label-phase2,2020.1.2,Win32,60,right,1.688385,2,0.49124,0,49,49,121,1,stimuli/objects/riverotter.jpg,right,new,122,,,,,,,,
,,,,,,,,2,2020-12-15_15h41.29.887,premce3DEU_ses-02_part-02_label-phase2,2020.1.2,Win32,60,right,0.73154,3,0.077505,0,50,50,94,1,stimuli/objects/dandelion.jpg,right,new,95,,,,,,,,
,,,,,,,,2,2020-12-15_15h41.29.887,premce3DEU_ses-02_part-02_label-phase2,2020.1.2,Win32,60,right,0.78854,3,0.36456,0,51,51,77,1,stimuli/objects/fishskeleton.jpg,left,old,78,,,,,,,,
,,,,,,,,2,2020-12-15_15h41.29.887,premce3DEU_ses-02_part-02_label-phase2,2020.1.2,Win32,60,right,1.4685,2,0.21696,0,52,52,126,1,stimuli/objects/bat.jpg,right,new,127,,,,,,,,
,,,,,,,,2,2020-12-15_15h41.29.887,premce3DEU_ses-02_part-02_label-phase2,2020.1.2,Win32,60,right,1.98974,2,0.2665,0,53,53,124,1,stimuli/objects/handheldtelescope.jpg,left,old,125,,,,,,,,
,,,,,,,,2,2020-12-15_15h41.29.887,premce3DEU_ses-02_part-02_label-phase2,2020.1.2,Win32,60,left,1.269545,1,0.230655,0,54,54,10,1,stimuli/objects/tablesaw.jpg,right,new,11,,,,,,,,
,,,,,,,,2,2020-12-15_15h41.29.887,premce3DEU_ses-02_part-02_label-phase2,2020.1.2,Win32,60,left,1.05259,4,0.501745,0,55,55,135,1,stimuli/objects/basketball01.jpg,left,old,136,,,,,,,,
,,,,,,,,2,2020-12-15_15h41.29.887,premce3DEU_ses-02_part-02_label-phase2,2020.1.2,Win32,60,right,1.564615,4,0.329,0,56,56,155,1,stimuli/objects/calendar.jpg,right,new,156,,,,,,,,
,,,,,,,,2,2020-12-15_15h41.29.887,premce3DEU_ses-02_part-02_label-phase2,2020.1.2,Win32,60,right,1.900125,4,0.24602,0,57,57,39,1,stimuli/objects/electrictoothbrush01c.jpg,right,new,40,,,,,,,,
,,,,,,,,2,2020-12-15_15h41.29.887,premce3DEU_ses-02_part-02_label-phase2,2020.1.2,Win32,60,right,1.221745,4,0.18167,0,58,58,84,1,stimuli/objects/winniethepooh.jpg,left,old,85,,,,,,,,
,,,,,,,,2,2020-12-15_15h41.29.887,premce3DEU_ses-02_part-02_label-phase2,2020.1.2,Win32,60,right,2.07918,4,0.789105,0,59,59,138,1,stimuli/objects/cow.jpg,right,new,139,,,,,,,,
,,,,,,,,2,2020-12-15_15h41.29.887,premce3DEU_ses-02_part-02_label-phase2,2020.1.2,Win32,60,right,1.467005,2,0.231325,0,60,60,14,1,stimuli/objects/canoepaddle02.jpg,left,old,15,,,,,,,,
,,,,,,,,2,2020-12-15_15h41.29.887,premce3DEU_ses-02_part-02_label-phase2,2020.1.2,Win32,60,left,1.25976,4,0.29042,0,61,61,140,1,stimuli/objects/exitsign.jpg,left,old,141,,,,,,,,
,,,,,,,,2,2020-12-15_15h41.29.887,premce3DEU_ses-02_part-02_label-phase2,2020.1.2,Win32,60,right,0.988755,4,0.09375,0,62,62,64,1,stimuli/objects/dalmatian.jpg,left,old,65,,,,,,,,
,,,,,,,,2,2020-12-15_15h41.29.887,premce3DEU_ses-02_part-02_label-phase2,2020.1.2,Win32,60,right,1.179145,2,0.511335,0,63,63,43,1,stimuli/objects/ostrich.jpg,right,new,44,,,,,,,,
,,,,,,,,2,2020-12-15_15h41.29.887,premce3DEU_ses-02_part-02_label-phase2,2020.1.2,Win32,60,right,0.889245,3,0.178895,0,64,64,85,1,stimuli/objects/bridge.jpg,right,new,86,,,,,,,,
,,,,,,,,2,2020-12-15_15h41.29.887,premce3DEU_ses-02_part-02_label-phase2,2020.1.2,Win32,60,left,0.71788,4,0.20684,0,65,65,122,1,stimuli/objects/soccerball.jpg,left,old,123,,,,,,,,
,,,,,,,,2,2020-12-15_15h41.29.887,premce3DEU_ses-02_part-02_label-phase2,2020.1.2,Win32,60,right,0.77132,1,0.12817,0,66,66,117,1,stimuli/objects/bull.jpg,right,new,118,,,,,,,,
,,,,,,,,2,2020-12-15_15h41.29.887,premce3DEU_ses-02_part-02_label-phase2,2020.1.2,Win32,60,right,1.388705,4,0.40115,0,67,67,130,1,stimuli/objects/tulip02.jpg,left,old,131,,,,,,,,
,,,,,,,,2,2020-12-15_15h41.29.887,premce3DEU_ses-02_part-02_label-phase2,2020.1.2,Win32,60,right,1.468685,3,0.3889,0,68,68,80,1,stimuli/objects/tree.jpg,right,new,81,,,,,,,,
,,,,,,,,2,2020-12-15_15h41.29.887,premce3DEU_ses-02_part-02_label-phase2,2020.1.2,Win32,60,right,1.571845,3,0.464315,0,69,69,70,1,stimuli/objects/balcony02.jpg,left,old,71,,,,,,,,
,,,,,,,,2,2020-12-15_15h41.29.887,premce3DEU_ses-02_part-02_label-phase2,2020.1.2,Win32,60,left,1.89945,2,0.138455,0,70,70,6,1,stimuli/objects/pumpkin.jpg,left,old,7,,,,,,,,
,,,,,,,,2,2020-12-15_15h41.29.887,premce3DEU_ses-02_part-02_label-phase2,2020.1.2,Win32,60,right,1.18518,3,0.187225,0,71,71,31,1,stimuli/objects/file.jpg,left,old,32,,,,,,,,
,,,,,,,,2,2020-12-15_15h41.29.887,premce3DEU_ses-02_part-02_label-phase2,2020.1.2,Win32,60,right,1.940325,2,0.04964,0,72,72,151,1,stimuli/objects/contactlens.jpg,left,old,152,,,,,,,,
,,,,,,,,2,2020-12-15_15h41.29.887,premce3DEU_ses-02_part-02_label-phase2,2020.1.2,Win32,60,right,0.80879,3,0.03226,0,73,73,19,1,stimuli/objects/crosscountryski.jpg,right,new,20,,,,,,,,
,,,,,,,,2,2020-12-15_15h41.29.887,premce3DEU_ses-02_part-02_label-phase2,2020.1.2,Win32,60,left,1.15262,4,0.24848,0,74,74,100,1,stimuli/objects/macaroni01.jpg,right,new,101,,,,,,,,
,,,,,,,,2,2020-12-15_15h41.29.887,premce3DEU_ses-02_part-02_label-phase2,2020.1.2,Win32,60,left,0.790175,4,0.04597,0,75,75,133,1,stimuli/objects/sink.jpg,right,new,134,,,,,,,,
,,,,,,,,2,2020-12-15_15h41.29.887,premce3DEU_ses-02_part-02_label-phase2,2020.1.2,Win32,60,right,0.9011,3,0.26486,0,76,76,66,1,stimuli/objects/shipinabottle.jpg,right,new,67,,,,,,,,
,,,,,,,,2,2020-12-15_15h41.29.887,premce3DEU_ses-02_part-02_label-phase2,2020.1.2,Win32,60,right,0.871685,3,0.280235,0,77,77,92,1,stimuli/objects/armchair02.jpg,right,new,93,,,,,,,,
,,,,,,,,2,2020-12-15_15h41.29.887,premce3DEU_ses-02_part-02_label-phase2,2020.1.2,Win32,60,left,1.1267,4,0.286355,0,78,78,58,1,stimuli/objects/beaver.jpg,left,old,59,,,,,,,,
,,,,,,,,2,2020-12-15_15h41.29.887,premce3DEU_ses-02_part-02_label-phase2,2020.1.2,Win32,60,right,0.91856,1,0.439005,0,79,79,54,1,stimuli/objects/toynutcracker.jpg,right,new,55,,,,,,,,
,,,,,,,,2,2020-12-15_15h41.29.887,premce3DEU_ses-02_part-02_label-phase2,2020.1.2,Win32,60,right,1.630565,1,0.675705,0,80,80,149,1,stimuli/objects/dolly01.jpg,right,new,150,,,,,,,,
,,,,,,,,2,2020-12-15_15h41.29.887,premce3DEU_ses-02_part-02_label-phase2,2020.1.2,Win32,60,left,0.78472,4,0.33347,0,81,81,127,1,stimuli/objects/sausage.jpg,left,old,128,,,,,,,,
,,,,,,,,2,2020-12-15_15h41.29.887,premce3DEU_ses-02_part-02_label-phase2,2020.1.2,Win32,60,right,1.43628,2,1.217825,0,82,82,45,1,stimuli/objects/fridge.jpg,left,old,46,,,,,,,,
,,,,,,,,2,2020-12-15_15h41.29.887,premce3DEU_ses-02_part-02_label-phase2,2020.1.2,Win32,60,left,1.200505,4,0.178015,0,83,83,60,1,stimuli/objects/banjo.jpg,right,new,61,,,,,,,,
,,,,,,,,2,2020-12-15_15h41.29.887,premce3DEU_ses-02_part-02_label-phase2,2020.1.2,Win32,60,left,0.89433,4,0.27715,0,84,84,52,1,stimuli/objects/turkey.jpg,right,new,53,,,,,,,,
,,,,,,,,2,2020-12-15_15h41.29.887,premce3DEU_ses-02_part-02_label-phase2,2020.1.2,Win32,60,right,0.890975,2,0.401,0,85,85,154,1,stimuli/objects/curtain.jpg,right,new,155,,,,,,,,
,,,,,,,,2,2020-12-15_15h41.29.887,premce3DEU_ses-02_part-02_label-phase2,2020.1.2,Win32,60,left,1.183235,1,0.28174,0,86,86,32,1,stimuli/objects/moth.jpg,right,new,33,,,,,,,,
,,,,,,,,2,2020-12-15_15h41.29.887,premce3DEU_ses-02_part-02_label-phase2,2020.1.2,Win32,60,right,1.04833,2,0.14628,0,87,87,57,1,stimuli/objects/cupcake.jpg,right,new,58,,,,,,,,
,,,,,,,,2,2020-12-15_15h41.29.887,premce3DEU_ses-02_part-02_label-phase2,2020.1.2,Win32,60,right,0.960435,3,0.1044,0,88,88,147,1,stimuli/objects/toiletbrush.jpg,right,new,148,,,,,,,,
,,,,,,,,2,2020-12-15_15h41.29.887,premce3DEU_ses-02_part-02_label-phase2,2020.1.2,Win32,60,left,1.01025,2,0.487805,0,89,89,158,1,stimuli/objects/watercooler.jpg,right,new,159,,,,,,,,
,,,,,,,,2,2020-12-15_15h41.29.887,premce3DEU_ses-02_part-02_label-phase2,2020.1.2,Win32,60,right,0.61443,3,0.1323,0,90,90,9,1,stimuli/objects/rose.jpg,right,new,10,,,,,,,,
,,,,,,,,2,2020-12-15_15h41.29.887,premce3DEU_ses-02_part-02_label-phase2,2020.1.2,Win32,60,right,1.23387,4,0.2706,0,91,91,51,1,stimuli/objects/road02.jpg,right,new,52,,,,,,,,
,,,,,,,,2,2020-12-15_15h41.29.887,premce3DEU_ses-02_part-02_label-phase2,2020.1.2,Win32,60,left,0.6773,4,0.213265,0,92,92,134,1,stimuli/objects/nunchuk.jpg,right,new,135,,,,,,,,
,,,,,,,,2,2020-12-15_15h41.29.887,premce3DEU_ses-02_part-02_label-phase2,2020.1.2,Win32,60,left,1.38479,2,0.56196,0,93,93,63,1,stimuli/objects/toasteroven.jpg,right,new,64,,,,,,,,
,,,,,,,,2,2020-12-15_15h41.29.887,premce3DEU_ses-02_part-02_label-phase2,2020.1.2,Win32,60,left,1.95402,2,0.13283,0,94,94,21,1,stimuli/objects/tire.jpg,right,new,22,,,,,,,,
,,,,,,,,2,2020-12-15_15h41.29.887,premce3DEU_ses-02_part-02_label-phase2,2020.1.2,Win32,60,left,1.1053,1,0.58453,0,95,95,141,1,stimuli/objects/stroller.jpg,right,new,142,,,,,,,,
,,,,,,,,2,2020-12-15_15h41.29.887,premce3DEU_ses-02_part-02_label-phase2,2020.1.2,Win32,60,right,0.74437,2,0.40036,0,96,96,34,1,stimuli/objects/aquarium.jpg,left,old,35,,,,,,,,
,,,,,,,,2,2020-12-15_15h41.29.887,premce3DEU_ses-02_part-02_label-phase2,2020.1.2,Win32,60,right,1.554115,3,0.14797,0,97,97,120,1,stimuli/objects/panda.jpg,left,old,121,,,,,,,,
,,,,,,,,2,2020-12-15_15h41.29.887,premce3DEU_ses-02_part-02_label-phase2,2020.1.2,Win32,60,right,1.114565,1,0.373375,0,98,98,123,1,stimuli/objects/lintroller.jpg,left,old,124,,,,,,,,
,,,,,,,,2,2020-12-15_15h41.29.887,premce3DEU_ses-02_part-02_label-phase2,2020.1.2,Win32,60,left,1.127965,2,0.00114,0,99,99,119,1,stimuli/objects/kite.jpg,right,new,120,,,,,,,,
,,,,,,,,2,2020-12-15_15h41.29.887,premce3DEU_ses-02_part-02_label-phase2,2020.1.2,Win32,60,right,1.293015,3,0.132565,0,100,100,22,1,stimuli/objects/paperairplane.jpg,right,new,23,,,,,,,,
,,,,,,,,2,2020-12-15_15h41.29.887,premce3DEU_ses-02_part-02_label-phase2,2020.1.2,Win32,60,left,0.89029,4,0.28251,0,101,101,159,1,stimuli/objects/stairs.jpg,right,new,160,,,,,,,,
,,,,,,,,2,2020-12-15_15h41.29.887,premce3DEU_ses-02_part-02_label-phase2,2020.1.2,Win32,60,left,1.0385,1,0.1337,0,102,102,116,1,stimuli/objects/toucan.jpg,right,new,117,,,,,,,,
,,,,,,,,2,2020-12-15_15h41.29.887,premce3DEU_ses-02_part-02_label-phase2,2020.1.2,Win32,60,left,0.84049,1,0.48297,0,103,103,30,1,stimuli/objects/fortunecookie.jpg,right,new,31,,,,,,,,
,,,,,,,,2,2020-12-15_15h41.29.887,premce3DEU_ses-02_part-02_label-phase2,2020.1.2,Win32,60,left,0.87093,3,0.21517,0,104,104,108,1,stimuli/objects/communitymailbox.jpg,left,old,109,,,,,,,,
,,,,,,,,2,2020-12-15_15h41.29.887,premce3DEU_ses-02_part-02_label-phase2,2020.1.2,Win32,60,right,0.85787,2,0.145125,0,105,105,23,1,stimuli/objects/lollipop04.jpg,right,new,24,,,,,,,,
,,,,,,,,2,2020-12-15_15h41.29.887,premce3DEU_ses-02_part-02_label-phase2,2020.1.2,Win32,60,left,1.50563,4,0.232555,0,106,106,91,1,stimuli/objects/eyepatch.jpg,left,old,92,,,,,,,,
,,,,,,,,2,2020-12-15_15h41.29.887,premce3DEU_ses-02_part-02_label-phase2,2020.1.2,Win32,60,right,0.789135,4,0.33325,0,107,107,56,1,stimuli/objects/jeans01.jpg,left,old,57,,,,,,,,
,,,,,,,,2,2020-12-15_15h41.29.887,premce3DEU_ses-02_part-02_label-phase2,2020.1.2,Win32,60,right,1.734,4,0.294865,0,108,108,137,1,stimuli/objects/brownsugar.jpg,left,old,138,,,,,,,,
,,,,,,,,2,2020-12-15_15h41.29.887,premce3DEU_ses-02_part-02_label-phase2,2020.1.2,Win32,60,right,2.039715,3,0.24739,0,109,109,150,1,stimuli/objects/eiffeltower.jpg,right,new,151,,,,,,,,
,,,,,,,,2,2020-12-15_15h41.29.887,premce3DEU_ses-02_part-02_label-phase2,2020.1.2,Win32,60,left,0.95371,4,0.116045,0,110,110,146,1,stimuli/objects/ant.jpg,right,new,147,,,,,,,,
,,,,,,,,2,2020-12-15_15h41.29.887,premce3DEU_ses-02_part-02_label-phase2,2020.1.2,Win32,60,right,1.063585,1,0.000945,0,111,111,29,1,stimuli/objects/snowman.jpg,left,old,30,,,,,,,,
,,,,,,,,2,2020-12-15_15h41.29.887,premce3DEU_ses-02_part-02_label-phase2,2020.1.2,Win32,60,right,0.753975,2,0.16369,0,112,112,103,1,stimuli/objects/salmon.jpg,left,old,104,,,,,,,,
,,,,,,,,2,2020-12-15_15h41.29.887,premce3DEU_ses-02_part-02_label-phase2,2020.1.2,Win32,60,right,1.48546,1,0.30115,0,113,113,7,1,stimuli/objects/redonion.jpg,left,old,8,,,,,,,,
,,,,,,,,2,2020-12-15_15h41.29.887,premce3DEU_ses-02_part-02_label-phase2,2020.1.2,Win32,60,left,0.555255,4,0.331125,0,114,114,107,1,stimuli/objects/musicstand.jpg,left,old,108,,,,,,,,
,,,,,,,,2,2020-12-15_15h41.29.887,premce3DEU_ses-02_part-02_label-phase2,2020.1.2,Win32,60,right,1.26874,2,0.001025,0,115,115,27,1,stimuli/objects/coffeemaker.jpg,left,old,28,,,,,,,,
,,,,,,,,2,2020-12-15_15h41.29.887,premce3DEU_ses-02_part-02_label-phase2,2020.1.2,Win32,60,right,0.720145,1,0.0663,0,116,116,139,1,stimuli/objects/safe.jpg,right,new,140,,,,,,,,
,,,,,,,,2,2020-12-15_15h41.29.887,premce3DEU_ses-02_part-02_label-phase2,2020.1.2,Win32,60,right,0.886465,1,0.052755,0,117,117,96,1,stimuli/objects/awning.jpg,right,new,97,,,,,,,,
,,,,,,,,2,2020-12-15_15h41.29.887,premce3DEU_ses-02_part-02_label-phase2,2020.1.2,Win32,60,left,1.35255,3,0.30042,0,118,118,18,1,stimuli/objects/pingpongtable.jpg,right,new,19,,,,,,,,
,,,,,,,,2,2020-12-15_15h41.29.887,premce3DEU_ses-02_part-02_label-phase2,2020.1.2,Win32,60,right,0.84393,1,0.03589,0,119,119,44,1,stimuli/objects/artichoke01b.jpg,left,old,45,,,,,,,,
,,,,,,,,2,2020-12-15_15h41.29.887,premce3DEU_ses-02_part-02_label-phase2,2020.1.2,Win32,60,right,1.03581,1,0.065975,0,120,120,102,1,stimuli/objects/forklift.jpg,left,old,103,,,,,,,,
,,,,,,,,2,2020-12-15_15h41.29.887,premce3DEU_ses-02_part-02_label-phase2,2020.1.2,Win32,60,right,0.85106,1,0.09688,0,121,121,24,1,stimuli/objects/icecube02.jpg,right,new,25,,,,,,,,
,,,,,,,,2,2020-12-15_15h41.29.887,premce3DEU_ses-02_part-02_label-phase2,2020.1.2,Win32,60,right,0.644315,1,0.047415,0,122,122,115,1,stimuli/objects/lantern03.jpg,left,old,116,,,,,,,,
,,,,,,,,2,2020-12-15_15h41.29.887,premce3DEU_ses-02_part-02_label-phase2,2020.1.2,Win32,60,left,0.91298,4,0.411415,0,123,123,105,1,stimuli/objects/gps.jpg,left,old,106,,,,,,,,
,,,,,,,,2,2020-12-15_15h41.29.887,premce3DEU_ses-02_part-02_label-phase2,2020.1.2,Win32,60,right,0.684375,1,0.106515,0,124,124,65,1,stimuli/objects/weddingcake.jpg,left,old,66,,,,,,,,
,,,,,,,,2,2020-12-15_15h41.29.887,premce3DEU_ses-02_part-02_label-phase2,2020.1.2,Win32,60,left,0.638,3,0.31552,0,125,125,153,1,stimuli/objects/coffeemachine.jpg,left,old,154,,,,,,,,
,,,,,,,,2,2020-12-15_15h41.29.887,premce3DEU_ses-02_part-02_label-phase2,2020.1.2,Win32,60,right,0.905215,4,0.331425,0,126,126,67,1,stimuli/objects/volleyball.jpg,left,old,68,,,,,,,,
,,,,,,,,2,2020-12-15_15h41.29.887,premce3DEU_ses-02_part-02_label-phase2,2020.1.2,Win32,60,left,0.70904,3,0.101625,0,127,127,17,1,stimuli/objects/parkingmeter.jpg,right,new,18,,,,,,,,
,,,,,,,,2,2020-12-15_15h41.29.887,premce3DEU_ses-02_part-02_label-phase2,2020.1.2,Win32,60,left,0.76906,2,0.12553,0,128,128,1,1,stimuli/objects/pooltable.jpg,right,new,2,,,,,,,,
,,,,,,,,2,2020-12-15_15h41.29.887,premce3DEU_ses-02_part-02_label-phase2,2020.1.2,Win32,60,right,0.72938,3,0.098565,0,129,129,13,1,stimuli/objects/tower.jpg,right,new,14,,,,,,,,
,,,,,,,,2,2020-12-15_15h41.29.887,premce3DEU_ses-02_part-02_label-phase2,2020.1.2,Win32,60,left,0.770205,4,0.145185,0,130,130,73,1,stimuli/objects/guitarcase.jpg,right,new,74,,,,,,,,
,,,,,,,,2,2020-12-15_15h41.29.887,premce3DEU_ses-02_part-02_label-phase2,2020.1.2,Win32,60,right,0.724605,1,0.04314,0,131,131,101,1,stimuli/objects/apron.jpg,left,old,102,,,,,,,,
,,,,,,,,2,2020-12-15_15h41.29.887,premce3DEU_ses-02_part-02_label-phase2,2020.1.2,Win32,60,right,0.852315,1,0.452635,0,132,132,81,1,stimuli/objects/lighthouse.jpg,right,new,82,,,,,,,,
,,,,,,,,2,2020-12-15_15h41.29.887,premce3DEU_ses-02_part-02_label-phase2,2020.1.2,Win32,60,left,0.78746,3,0.19474,0,133,133,53,1,stimuli/objects/honeybee.jpg,right,new,54,,,,,,,,
,,,,,,,,2,2020-12-15_15h41.29.887,premce3DEU_ses-02_part-02_label-phase2,2020.1.2,Win32,60,left,0.755835,4,0.07939,0,134,134,93,1,stimuli/objects/discoball.jpg,right,new,94,,,,,,,,
,,,,,,,,2,2020-12-15_15h41.29.887,premce3DEU_ses-02_part-02_label-phase2,2020.1.2,Win32,60,right,0.6338,1,0.108885,0,135,135,125,1,stimuli/objects/freezer02.jpg,right,new,126,,,,,,,,
,,,,,,,,2,2020-12-15_15h41.29.887,premce3DEU_ses-02_part-02_label-phase2,2020.1.2,Win32,60,left,0.830745,1,0.22449,0,136,136,42,1,stimuli/objects/snowshoe.jpg,right,new,43,,,,,,,,
,,,,,,,,2,2020-12-15_15h41.29.887,premce3DEU_ses-02_part-02_label-phase2,2020.1.2,Win32,60,left,0.78014,1,0.04646,0,137,137,46,1,stimuli/objects/entrancegate.jpg,right,new,47,,,,,,,,
,,,,,,,,2,2020-12-15_15h41.29.887,premce3DEU_ses-02_part-02_label-phase2,2020.1.2,Win32,60,left,0.88136,4,0.30767,0,138,138,33,1,stimuli/objects/caribou02.jpg,right,new,34,,,,,,,,
,,,,,,,,2,2020-12-15_15h41.29.887,premce3DEU_ses-02_part-02_label-phase2,2020.1.2,Win32,60,right,1.03219,1,0.399605,0,139,139,48,1,stimuli/objects/bowlingpin.jpg,left,old,49,,,,,,,,
,,,,,,,,2,2020-12-15_15h41.29.887,premce3DEU_ses-02_part-02_label-phase2,2020.1.2,Win32,60,left,0.66786,4,0.132525,0,140,140,68,1,stimuli/objects/cuttlefish.jpg,left,old,69,,,,,,,,
,,,,,,,,2,2020-12-15_15h41.29.887,premce3DEU_ses-02_part-02_label-phase2,2020.1.2,Win32,60,left,0.60567,4,0.087265,0,141,141,118,1,stimuli/objects/microwave.jpg,left,old,119,,,,,,,,
,,,,,,,,2,2020-12-15_15h41.29.887,premce3DEU_ses-02_part-02_label-phase2,2020.1.2,Win32,60,right,0.74029,3,0.47913,0,142,142,50,1,stimuli/objects/lionstatue.jpg,left,old,51,,,,,,,,
,,,,,,,,2,2020-12-15_15h41.29.887,premce3DEU_ses-02_part-02_label-phase2,2020.1.2,Win32,60,right,0.75351,4,0.60822,0,143,143,114,1,stimuli/objects/star.jpg,left,old,115,,,,,,,,
,,,,,,,,2,2020-12-15_15h41.29.887,premce3DEU_ses-02_part-02_label-phase2,2020.1.2,Win32,60,left,0.936055,1,0.448045,0,144,144,95,1,stimuli/objects/scalpel.jpg,left,old,96,,,,,,,,
,,,,,,,,2,2020-12-15_15h41.29.887,premce3DEU_ses-02_part-02_label-phase2,2020.1.2,Win32,60,left,0.788235,4,0.22999,0,145,145,156,1,stimuli/objects/skateboard.jpg,left,old,157,,,,,,,,
,,,,,,,,2,2020-12-15_15h41.29.887,premce3DEU_ses-02_part-02_label-phase2,2020.1.2,Win32,60,right,0.802885,2,0.34892,0,146,146,47,1,stimuli/objects/stepladder.jpg,left,old,48,,,,,,,,
,,,,,,,,2,2020-12-15_15h41.29.887,premce3DEU_ses-02_part-02_label-phase2,2020.1.2,Win32,60,right,1.296575,1,0.293305,0,147,147,28,1,stimuli/objects/seaturtle.jpg,left,old,29,,,,,,,,
,,,,,,,,2,2020-12-15_15h41.29.887,premce3DEU_ses-02_part-02_label-phase2,2020.1.2,Win32,60,right,1.608145,1,0.130775,0,148,148,143,1,stimuli/objects/faucet.jpg,right,new,144,,,,,,,,
,,,,,,,,2,2020-12-15_15h41.29.887,premce3DEU_ses-02_part-02_label-phase2,2020.1.2,Win32,60,left,0.72262,4,0.120585,0,149,149,82,1,stimuli/objects/crown.jpg,left,old,83,,,,,,,,
,,,,,,,,2,2020-12-15_15h41.29.887,premce3DEU_ses-02_part-02_label-phase2,2020.1.2,Win32,60,right,0.855415,1,0.134145,0,150,150,131,1,stimuli/objects/missile.jpg,right,new,132,,,,,,,,
,,,,,,,,2,2020-12-15_15h41.29.887,premce3DEU_ses-02_part-02_label-phase2,2020.1.2,Win32,60,right,2.022195,1,0.24308,0,151,151,88,1,stimuli/objects/jackrabbit.jpg,left,old,89,,,,,,,,
,,,,,,,,2,2020-12-15_15h41.29.887,premce3DEU_ses-02_part-02_label-phase2,2020.1.2,Win32,60,right,0.76414,4,0.177065,0,152,152,89,1,stimuli/objects/bowlingball.jpg,right,new,90,,,,,,,,
,,,,,,,,2,2020-12-15_15h41.29.887,premce3DEU_ses-02_part-02_label-phase2,2020.1.2,Win32,60,left,0.9954,4,0.4132,0,153,153,142,1,stimuli/objects/giraffe.jpg,left,old,143,,,,,,,,
,,,,,,,,2,2020-12-15_15h41.29.887,premce3DEU_ses-02_part-02_label-phase2,2020.1.2,Win32,60,right,0.9569,1,0.87023,0,154,154,8,1,stimuli/objects/englishcucumber.jpg,right,new,9,,,,,,,,
,,,,,,,,2,2020-12-15_15h41.29.887,premce3DEU_ses-02_part-02_label-phase2,2020.1.2,Win32,60,left,1.067235,1,0.548985,0,155,155,4,1,stimuli/objects/skipole.jpg,right,new,5,,,,,,,,
,,,,,,,,2,2020-12-15_15h41.29.887,premce3DEU_ses-02_part-02_label-phase2,2020.1.2,Win32,60,right,1.900035,3,0.32012,0,156,156,104,1,stimuli/objects/porcupine.jpg,left,old,105,,,,,,,,
,,,,,,,,2,2020-12-15_15h41.29.887,premce3DEU_ses-02_part-02_label-phase2,2020.1.2,Win32,60,right,0.769885,2,0.248545,0,157,157,113,1,stimuli/objects/shoppingcart.jpg,right,new,114,,,,,,,,
,,,,,,,,2,2020-12-15_15h41.29.887,premce3DEU_ses-02_part-02_label-phase2,2020.1.2,Win32,60,right,1.154675,4,0.213655,0,158,158,97,1,stimuli/objects/dreamcatcher.jpg,left,old,98,,,,,,,,
,,,,,,,,2,2020-12-15_15h41.29.887,premce3DEU_ses-02_part-02_label-phase2,2020.1.2,Win32,60,left,1.37089,4,0.209165,0,159,159,144,1,stimuli/objects/trombone.jpg,left,old,145,,,,,,,,
,,,,,,,,2,2020-12-15_15h41.29.887,premce3DEU_ses-02_part-02_label-phase2,2020.1.2,Win32,60,,,,,,,,,,,,,,space,3.78162,0,1,1,0,1,ImagesforRecog1.csv
