Instr_resp_2.keys,Instr_resp_2.rt,warmup_resp.keys,warmup_resp.corr,warmup_resp.rt,myownaccuracy,respcorrs,myownaccuracyCORR,trials.thisRepN,trials.thisTrialN,trials.thisN,trials.thisIndex,trials.ran,first_butterfly,second_butterfly,Cue,left_flower,top_flower,bottom_flower,right_flower,corr_ans,obj_file,trial_cond,switch_cond,cuedButter,trial_type,participant,date,expName,psychopyVersion,OS,frameRate,Instr_resp.keys,Instr_resp.rt,taskGoresp.keys,taskGoresp.rt,task_resp_3.keys,task_resp_3.corr,task_resp_3.rt,task_loop.thisRepN,task_loop.thisTrialN,task_loop.thisN,task_loop.thisIndex,task_loop.ran,list_loop.thisRepN,list_loop.thisTrialN,list_loop.thisN,list_loop.thisIndex,list_loop.ran,list,key_resp.keys,key_resp.rt
space,14.118,up,0,2.06,0,[],0,0,0,0,12,1,stimuli/white_butterfly.png,stimuli/grey_butterfly.png,1,stimuli/yellow_flower.png,stimuli/red_flower.png,stimuli/blue_flower.png,stimuli/green_flower.png,down,stimuli/objects/toolbox02.jpg,1,99,stimuli/white_butterfly.png,1,3,2020-12-18_10h14.40.219,premce3DEU_ses-02_part-01_label-phase1,2020.1.2,MacIntel,60,,,,,,,,,,,,,,,,,,,,
,,left,1,1.52,1,[0],0,0,1,1,11,1,stimuli/white_butterfly.png,stimuli/grey_butterfly.png,2,stimuli/blue_flower.png,stimuli/green_flower.png,stimuli/yellow_flower.png,stimuli/red_flower.png,left,stimuli/objects/bookshelf.jpg,0,99,stimuli/grey_butterfly.png,1,3,2020-12-18_10h14.40.219,premce3DEU_ses-02_part-01_label-phase1,2020.1.2,MacIntel,60,,,,,,,,,,,,,,,,,,,,
,,down,0,0.778,0,[0],0,0,2,2,15,1,stimuli/grey_butterfly.png,stimuli/white_butterfly.png,1,stimuli/red_flower.png,stimuli/yellow_flower.png,stimuli/blue_flower.png,stimuli/green_flower.png,left,stimuli/objects/wheat.jpg,1,99,stimuli/grey_butterfly.png,1,3,2020-12-18_10h14.40.219,premce3DEU_ses-02_part-01_label-phase1,2020.1.2,MacIntel,60,,,,,,,,,,,,,,,,,,,,
,,up,1,1.135,1,"[0,0]",1,0,3,3,2,1,stimuli/white_butterfly.png,stimuli/grey_butterfly.png,2,stimuli/blue_flower.png,stimuli/red_flower.png,stimuli/yellow_flower.png,stimuli/green_flower.png,up,stimuli/objects/corn02.jpg,1,99,stimuli/grey_butterfly.png,0,3,2020-12-18_10h14.40.219,premce3DEU_ses-02_part-01_label-phase1,2020.1.2,MacIntel,60,,,,,,,,,,,,,,,,,,,,
,,up,1,0.854,1,"[0,0,1]",1,0,4,4,1,1,stimuli/white_butterfly.png,stimuli/grey_butterfly.png,2,stimuli/yellow_flower.png,stimuli/red_flower.png,stimuli/blue_flower.png,stimuli/green_flower.png,up,stimuli/objects/marble.jpg,1,99,stimuli/grey_butterfly.png,0,3,2020-12-18_10h14.40.219,premce3DEU_ses-02_part-01_label-phase1,2020.1.2,MacIntel,60,,,,,,,,,,,,,,,,,,,,
,,left,1,1.154,1,"[0,0,1,1]",1,0,5,5,10,1,stimuli/white_butterfly.png,stimuli/grey_butterfly.png,1,stimuli/green_flower.png,stimuli/yellow_flower.png,stimuli/blue_flower.png,stimuli/red_flower.png,left,stimuli/objects/anchor.jpg,0,99,stimuli/white_butterfly.png,0,3,2020-12-18_10h14.40.219,premce3DEU_ses-02_part-01_label-phase1,2020.1.2,MacIntel,60,,,,,,,,,,,,,,,,,,,,
,,right,0,0.63,0,"[0,0,1,1]",0,0,6,6,9,1,stimuli/white_butterfly.png,stimuli/grey_butterfly.png,1,stimuli/blue_flower.png,stimuli/red_flower.png,stimuli/yellow_flower.png,stimuli/green_flower.png,left,stimuli/objects/skunk.jpg,1,99,stimuli/white_butterfly.png,0,3,2020-12-18_10h14.40.219,premce3DEU_ses-02_part-01_label-phase1,2020.1.2,MacIntel,60,,,,,,,,,,,,,,,,,,,,
,,left,0,0.599,0,"[0,0,1,1,0]",0,0,7,7,18,1,stimuli/grey_butterfly.png,stimuli/white_butterfly.png,2,stimuli/blue_flower.png,stimuli/yellow_flower.png,stimuli/green_flower.png,stimuli/red_flower.png,up,stimuli/objects/armadillo.jpg,0,99,stimuli/white_butterfly.png,1,3,2020-12-18_10h14.40.219,premce3DEU_ses-02_part-01_label-phase1,2020.1.2,MacIntel,60,,,,,,,,,,,,,,,,,,,,
,,down,0,0.957,0,"[0,0,1,1,0]",0,0,8,8,4,1,stimuli/white_butterfly.png,stimuli/grey_butterfly.png,1,stimuli/green_flower.png,stimuli/red_flower.png,stimuli/yellow_flower.png,stimuli/blue_flower.png,right,stimuli/objects/tire.jpg,1,99,stimuli/white_butterfly.png,0,3,2020-12-18_10h14.40.219,premce3DEU_ses-02_part-01_label-phase1,2020.1.2,MacIntel,60,,,,,,,,,,,,,,,,,,,,
,,right,1,1.559,1,"[0,0,1,1,0,0]",1,0,9,9,0,1,stimuli/grey_butterfly.png,stimuli/white_butterfly.png,2,stimuli/green_flower.png,stimuli/red_flower.png,stimuli/yellow_flower.png,stimuli/blue_flower.png,right,stimuli/objects/tennisracket.jpg,1,99,stimuli/white_butterfly.png,0,3,2020-12-18_10h14.40.219,premce3DEU_ses-02_part-01_label-phase1,2020.1.2,MacIntel,60,,,,,,,,,,,,,,,,,,,,
,,right,1,0.499,1,"[0,0,1,1,0,0,1]",1,0,10,10,16,1,stimuli/grey_butterfly.png,stimuli/white_butterfly.png,2,stimuli/red_flower.png,stimuli/yellow_flower.png,stimuli/green_flower.png,stimuli/blue_flower.png,right,stimuli/objects/foosballtable.jpg,1,99,stimuli/white_butterfly.png,1,3,2020-12-18_10h14.40.219,premce3DEU_ses-02_part-01_label-phase1,2020.1.2,MacIntel,60,,,,,,,,,,,,,,,,,,,,
,,down,1,0.595,1,"[0,0,1,1,0,0,1,1]",1,0,11,11,5,1,stimuli/white_butterfly.png,stimuli/grey_butterfly.png,1,stimuli/green_flower.png,stimuli/red_flower.png,stimuli/blue_flower.png,stimuli/yellow_flower.png,down,stimuli/objects/birdfeeder.jpg,1,99,stimuli/white_butterfly.png,0,3,2020-12-18_10h14.40.219,premce3DEU_ses-02_part-01_label-phase1,2020.1.2,MacIntel,60,,,,,,,,,,,,,,,,,,,,
,,up,1,0.752,1,"[0,0,1,1,0,0,1,1,1]",1,0,12,12,14,1,stimuli/grey_butterfly.png,stimuli/white_butterfly.png,1,stimuli/blue_flower.png,stimuli/red_flower.png,stimuli/yellow_flower.png,stimuli/green_flower.png,up,stimuli/objects/shed02.jpg,1,99,stimuli/grey_butterfly.png,1,3,2020-12-18_10h14.40.219,premce3DEU_ses-02_part-01_label-phase1,2020.1.2,MacIntel,60,,,,,,,,,,,,,,,,,,,,
,,down,1,1.646,1,"[0,0,1,1,0,0,1,1,1,1]",1,0,13,13,7,1,stimuli/grey_butterfly.png,stimuli/white_butterfly.png,2,stimuli/red_flower.png,stimuli/green_flower.png,stimuli/blue_flower.png,stimuli/yellow_flower.png,down,stimuli/objects/firehydrant.jpg,1,99,stimuli/white_butterfly.png,0,3,2020-12-18_10h14.40.219,premce3DEU_ses-02_part-01_label-phase1,2020.1.2,MacIntel,60,,,,,,,,,,,,,,,,,,,,
,,up,1,1.214,1,"[0,0,1,1,0,0,1,1,1,1,1]",1,0,14,14,19,1,stimuli/grey_butterfly.png,stimuli/white_butterfly.png,2,stimuli/yellow_flower.png,stimuli/blue_flower.png,stimuli/red_flower.png,stimuli/green_flower.png,up,stimuli/objects/motorcycle.jpg,1,99,stimuli/white_butterfly.png,1,3,2020-12-18_10h14.40.219,premce3DEU_ses-02_part-01_label-phase1,2020.1.2,MacIntel,60,,,,,,,,,,,,,,,,,,,,
,,left,1,0.744,1,"[0,0,1,1,0,0,1,1,1,1,1,1]",1,0,15,15,8,1,stimuli/white_butterfly.png,stimuli/grey_butterfly.png,2,stimuli/red_flower.png,stimuli/blue_flower.png,stimuli/green_flower.png,stimuli/yellow_flower.png,left,stimuli/objects/shelf.jpg,1,99,stimuli/grey_butterfly.png,0,3,2020-12-18_10h14.40.219,premce3DEU_ses-02_part-01_label-phase1,2020.1.2,MacIntel,60,,,,,,,,,,,,,,,,,,,,
,,down,0,0.924,0,"[0,0,1,1,0,0,1,1,1,1,1,1,1]",1,0,16,16,3,1,stimuli/white_butterfly.png,stimuli/grey_butterfly.png,2,stimuli/green_flower.png,stimuli/blue_flower.png,stimuli/red_flower.png,stimuli/yellow_flower.png,left,stimuli/objects/cigar.jpg,0,99,stimuli/grey_butterfly.png,0,3,2020-12-18_10h14.40.219,premce3DEU_ses-02_part-01_label-phase1,2020.1.2,MacIntel,60,,,,,,,,,,,,,,,,,,,,
,,left,0,1.326,0,"[0,0,1,1,0,0,1,1,1,1,1,1,1]",1,0,17,17,17,1,stimuli/grey_butterfly.png,stimuli/white_butterfly.png,1,stimuli/red_flower.png,stimuli/green_flower.png,stimuli/yellow_flower.png,stimuli/blue_flower.png,down,stimuli/objects/butterfly4.jpg,0,99,stimuli/grey_butterfly.png,1,3,2020-12-18_10h14.40.219,premce3DEU_ses-02_part-01_label-phase1,2020.1.2,MacIntel,60,,,,,,,,,,,,,,,,,,,,
,,left,0,0.576,0,"[0,0,1,1,0,0,1,1,1,1,1,1,1]",1,0,18,18,13,1,stimuli/grey_butterfly.png,stimuli/white_butterfly.png,2,stimuli/blue_flower.png,stimuli/red_flower.png,stimuli/yellow_flower.png,stimuli/green_flower.png,up,stimuli/objects/payphone.jpg,0,99,stimuli/white_butterfly.png,1,3,2020-12-18_10h14.40.219,premce3DEU_ses-02_part-01_label-phase1,2020.1.2,MacIntel,60,,,,,,,,,,,,,,,,,,,,
,,right,1,2.007,1,"[0,0,1,1,0,0,1,1,1,1,1,1,1]",1,0,19,19,6,1,stimuli/grey_butterfly.png,stimuli/white_butterfly.png,1,stimuli/green_flower.png,stimuli/yellow_flower.png,stimuli/blue_flower.png,stimuli/red_flower.png,right,stimuli/objects/flipflop01b.jpg,1,99,stimuli/grey_butterfly.png,0,3,2020-12-18_10h14.40.219,premce3DEU_ses-02_part-01_label-phase1,2020.1.2,MacIntel,60,,,,,,,,,,,,,,,,,,,,
,,right,1,0.593,1,"[0,0,1,1,0,0,1,1,1,1,1,1,1,1]",1,0,20,20,20,1,stimuli/white_butterfly.png,stimuli/grey_butterfly.png,2,stimuli/green_flower.png,stimuli/blue_flower.png,stimuli/yellow_flower.png,stimuli/red_flower.png,right,stimuli/objects/toucan.jpg,1,99,stimuli/grey_butterfly.png,1,3,2020-12-18_10h14.40.219,premce3DEU_ses-02_part-01_label-phase1,2020.1.2,MacIntel,60,,,,,,,,,,,,,,,,,,,,
,,,,,1,"[0,0,1,1,0,0,1,1,1,1,1,1,1,1,1]",1,,,,,,stimuli/white_butterfly.png,stimuli/grey_butterfly.png,1,stimuli/blue_flower.png,stimuli/red_flower.png,stimuli/green_flower.png,stimuli/yellow_flower.png,left,stimuli/objects/treestump.jpg,1,2,stimuli/white_butterfly.png,0,3,2020-12-18_10h14.40.219,premce3DEU_ses-02_part-01_label-phase1,2020.1.2,MacIntel,60,space,22.058,space,6.084,left,1,1.24,0,0,0,0,1,,,,,,,,
,,,,,0,"[0,0,1,1,0,0,1,1,1,1,1,1,1,1,1,1]",1,,,,,,stimuli/grey_butterfly.png,stimuli/white_butterfly.png,2,stimuli/yellow_flower.png,stimuli/green_flower.png,stimuli/blue_flower.png,stimuli/red_flower.png,up,stimuli/objects/trombone.jpg,0,2,stimuli/white_butterfly.png,0,3,2020-12-18_10h14.40.219,premce3DEU_ses-02_part-01_label-phase1,2020.1.2,MacIntel,60,,,,,down,0,0.719,0,1,1,1,1,,,,,,,,
,,,,,0,"[0,0,1,1,0,0,1,1,1,1,1,1,1,1,1,1]",1,,,,,,stimuli/white_butterfly.png,stimuli/grey_butterfly.png,1,stimuli/green_flower.png,stimuli/blue_flower.png,stimuli/red_flower.png,stimuli/yellow_flower.png,down,stimuli/objects/tent.jpg,0,2,stimuli/white_butterfly.png,0,3,2020-12-18_10h14.40.219,premce3DEU_ses-02_part-01_label-phase1,2020.1.2,MacIntel,60,,,,,left,0,0.495,0,2,2,2,1,,,,,,,,
,,,,,0,"[0,0,1,1,0,0,1,1,1,1,1,1,1,1,1,1]",1,,,,,,stimuli/grey_butterfly.png,stimuli/white_butterfly.png,1,stimuli/yellow_flower.png,stimuli/green_flower.png,stimuli/red_flower.png,stimuli/blue_flower.png,left,stimuli/objects/cruiseship.jpg,0,2,stimuli/grey_butterfly.png,0,3,2020-12-18_10h14.40.219,premce3DEU_ses-02_part-01_label-phase1,2020.1.2,MacIntel,60,,,,,down,0,0.512,0,3,3,3,1,,,,,,,,
,,,,,0,"[0,0,1,1,0,0,1,1,1,1,1,1,1,1,1,1]",0,,,,,,stimuli/grey_butterfly.png,stimuli/white_butterfly.png,2,stimuli/blue_flower.png,stimuli/red_flower.png,stimuli/yellow_flower.png,stimuli/green_flower.png,left,stimuli/objects/spicerack.jpg,1,2,stimuli/white_butterfly.png,0,3,2020-12-18_10h14.40.219,premce3DEU_ses-02_part-01_label-phase1,2020.1.2,MacIntel,60,,,,,up,0,0.906,0,4,4,4,1,,,,,,,,
,,,,,1,"[0,0,1,1,0,0,1,1,1,1,1,1,1,1,1,1,0]",1,,,,,,stimuli/white_butterfly.png,stimuli/grey_butterfly.png,2,stimuli/yellow_flower.png,stimuli/green_flower.png,stimuli/red_flower.png,stimuli/blue_flower.png,down,stimuli/objects/football.jpg,1,2,stimuli/grey_butterfly.png,0,3,2020-12-18_10h14.40.219,premce3DEU_ses-02_part-01_label-phase1,2020.1.2,MacIntel,60,,,,,down,1,0.996,0,5,5,5,1,,,,,,,,
,,,,,1,"[0,0,1,1,0,0,1,1,1,1,1,1,1,1,1,1,0,1]",1,,,,,,stimuli/white_butterfly.png,stimuli/grey_butterfly.png,1,stimuli/green_flower.png,stimuli/yellow_flower.png,stimuli/red_flower.png,stimuli/blue_flower.png,right,stimuli/objects/bowlingpin.jpg,1,2,stimuli/white_butterfly.png,0,3,2020-12-18_10h14.40.219,premce3DEU_ses-02_part-01_label-phase1,2020.1.2,MacIntel,60,,,,,right,1,0.627,0,6,6,6,1,,,,,,,,
,,,,,1,"[0,0,1,1,0,0,1,1,1,1,1,1,1,1,1,1,0,1,1]",1,,,,,,stimuli/white_butterfly.png,stimuli/grey_butterfly.png,1,stimuli/blue_flower.png,stimuli/yellow_flower.png,stimuli/green_flower.png,stimuli/red_flower.png,left,stimuli/objects/beerbottle.jpg,1,2,stimuli/white_butterfly.png,0,3,2020-12-18_10h14.40.219,premce3DEU_ses-02_part-01_label-phase1,2020.1.2,MacIntel,60,,,,,left,1,0.487,0,7,7,7,1,,,,,,,,
,,,,,1,"[0,0,1,1,0,0,1,1,1,1,1,1,1,1,1,1,0,1,1,1]",1,,,,,,stimuli/white_butterfly.png,stimuli/grey_butterfly.png,1,stimuli/red_flower.png,stimuli/yellow_flower.png,stimuli/green_flower.png,stimuli/blue_flower.png,right,stimuli/objects/key07.jpg,1,2,stimuli/white_butterfly.png,0,3,2020-12-18_10h14.40.219,premce3DEU_ses-02_part-01_label-phase1,2020.1.2,MacIntel,60,,,,,right,1,0.493,0,8,8,8,1,,,,,,,,
,,,,,1,"[0,0,1,1,0,0,1,1,1,1,1,1,1,1,1,1,0,1,1,1,1]",1,,,,,,stimuli/grey_butterfly.png,stimuli/white_butterfly.png,1,stimuli/green_flower.png,stimuli/red_flower.png,stimuli/blue_flower.png,stimuli/yellow_flower.png,up,stimuli/objects/moon.jpg,1,2,stimuli/grey_butterfly.png,0,3,2020-12-18_10h14.40.219,premce3DEU_ses-02_part-01_label-phase1,2020.1.2,MacIntel,60,,,,,up,1,1.105,0,9,9,9,1,,,,,,,,
,,,,,1,"[0,0,1,1,0,0,1,1,1,1,1,1,1,1,1,1,0,1,1,1,1,1]",1,,,,,,stimuli/white_butterfly.png,stimuli/grey_butterfly.png,2,stimuli/green_flower.png,stimuli/blue_flower.png,stimuli/yellow_flower.png,stimuli/red_flower.png,right,stimuli/objects/exitsign.jpg,1,2,stimuli/grey_butterfly.png,0,3,2020-12-18_10h14.40.219,premce3DEU_ses-02_part-01_label-phase1,2020.1.2,MacIntel,60,,,,,right,1,0.971,0,10,10,10,1,,,,,,,,
,,,,,1,"[0,0,1,1,0,0,1,1,1,1,1,1,1,1,1,1,0,1,1,1,1,1,1]",1,,,,,,stimuli/grey_butterfly.png,stimuli/white_butterfly.png,2,stimuli/yellow_flower.png,stimuli/blue_flower.png,stimuli/red_flower.png,stimuli/green_flower.png,up,stimuli/objects/wheelchair.jpg,1,2,stimuli/white_butterfly.png,0,3,2020-12-18_10h14.40.219,premce3DEU_ses-02_part-01_label-phase1,2020.1.2,MacIntel,60,,,,,up,1,0.978,0,11,11,11,1,,,,,,,,
,,,,,1,"[0,0,1,1,0,0,1,1,1,1,1,1,1,1,1,1,0,1,1,1,1,1,1,1]",1,,,,,,stimuli/grey_butterfly.png,stimuli/white_butterfly.png,2,stimuli/green_flower.png,stimuli/red_flower.png,stimuli/blue_flower.png,stimuli/yellow_flower.png,down,stimuli/objects/file.jpg,1,2,stimuli/white_butterfly.png,0,3,2020-12-18_10h14.40.219,premce3DEU_ses-02_part-01_label-phase1,2020.1.2,MacIntel,60,,,,,down,1,0.873,0,12,12,12,1,,,,,,,,
,,,,,1,"[0,0,1,1,0,0,1,1,1,1,1,1,1,1,1,1,0,1,1,1,1,1,1,1,1]",1,,,,,,stimuli/grey_butterfly.png,stimuli/white_butterfly.png,1,stimuli/green_flower.png,stimuli/yellow_flower.png,stimuli/red_flower.png,stimuli/blue_flower.png,down,stimuli/objects/pirateflag.jpg,1,2,stimuli/grey_butterfly.png,0,3,2020-12-18_10h14.40.219,premce3DEU_ses-02_part-01_label-phase1,2020.1.2,MacIntel,60,,,,,down,1,1.23,0,13,13,13,1,,,,,,,,
,,,,,1,"[0,0,1,1,0,0,1,1,1,1,1,1,1,1,1,1,0,1,1,1,1,1,1,1,1,1]",1,,,,,,stimuli/grey_butterfly.png,stimuli/white_butterfly.png,1,stimuli/red_flower.png,stimuli/green_flower.png,stimuli/blue_flower.png,stimuli/yellow_flower.png,left,stimuli/objects/butterfly1.jpg,1,2,stimuli/grey_butterfly.png,0,3,2020-12-18_10h14.40.219,premce3DEU_ses-02_part-01_label-phase1,2020.1.2,MacIntel,60,,,,,left,1,1.239,0,14,14,14,1,,,,,,,,
,,,,,0,"[0,0,1,1,0,0,1,1,1,1,1,1,1,1,1,1,0,1,1,1,1,1,1,1,1,1,1]",1,,,,,,stimuli/white_butterfly.png,stimuli/grey_butterfly.png,2,stimuli/green_flower.png,stimuli/blue_flower.png,stimuli/red_flower.png,stimuli/yellow_flower.png,left,stimuli/objects/christmaslights.jpg,0,2,stimuli/grey_butterfly.png,0,3,2020-12-18_10h14.40.219,premce3DEU_ses-02_part-01_label-phase1,2020.1.2,MacIntel,60,,,,,down,0,0.631,0,15,15,15,1,,,,,,,,
,,,,,1,"[0,0,1,1,0,0,1,1,1,1,1,1,1,1,1,1,0,1,1,1,1,1,1,1,1,1,1]",1,,,,,,stimuli/grey_butterfly.png,stimuli/white_butterfly.png,2,stimuli/blue_flower.png,stimuli/green_flower.png,stimuli/red_flower.png,stimuli/yellow_flower.png,left,stimuli/objects/seagull.jpg,1,2,stimuli/white_butterfly.png,0,3,2020-12-18_10h14.40.219,premce3DEU_ses-02_part-01_label-phase1,2020.1.2,MacIntel,60,,,,,left,1,0.655,0,16,16,16,1,,,,,,,,
,,,,,1,"[0,0,1,1,0,0,1,1,1,1,1,1,1,1,1,1,0,1,1,1,1,1,1,1,1,1,1,1]",1,,,,,,stimuli/grey_butterfly.png,stimuli/white_butterfly.png,2,stimuli/yellow_flower.png,stimuli/red_flower.png,stimuli/green_flower.png,stimuli/blue_flower.png,right,stimuli/objects/fluorescentlightbulb.jpg,1,2,stimuli/white_butterfly.png,0,3,2020-12-18_10h14.40.219,premce3DEU_ses-02_part-01_label-phase1,2020.1.2,MacIntel,60,,,,,right,1,1.867,0,17,17,17,1,,,,,,,,
,,,,,1,"[0,0,1,1,0,0,1,1,1,1,1,1,1,1,1,1,0,1,1,1,1,1,1,1,1,1,1,1,1]",1,,,,,,stimuli/white_butterfly.png,stimuli/grey_butterfly.png,1,stimuli/red_flower.png,stimuli/blue_flower.png,stimuli/yellow_flower.png,stimuli/green_flower.png,up,stimuli/objects/xylophone.jpg,1,2,stimuli/white_butterfly.png,0,3,2020-12-18_10h14.40.219,premce3DEU_ses-02_part-01_label-phase1,2020.1.2,MacIntel,60,,,,,up,1,1.586,0,18,18,18,1,,,,,,,,
,,,,,1,"[0,0,1,1,0,0,1,1,1,1,1,1,1,1,1,1,0,1,1,1,1,1,1,1,1,1,1,1,1,1]",1,,,,,,stimuli/grey_butterfly.png,stimuli/white_butterfly.png,1,stimuli/red_flower.png,stimuli/blue_flower.png,stimuli/green_flower.png,stimuli/yellow_flower.png,left,stimuli/objects/basketball01.jpg,1,2,stimuli/grey_butterfly.png,0,3,2020-12-18_10h14.40.219,premce3DEU_ses-02_part-01_label-phase1,2020.1.2,MacIntel,60,,,,,left,1,1.417,0,19,19,19,1,,,,,,,,
,,,,,0,"[0,0,1,1,0,0,1,1,1,1,1,1,1,1,1,1,0,1,1,1,1,1,1,1,1,1,1,1,1,1,1]",1,,,,,,stimuli/white_butterfly.png,stimuli/grey_butterfly.png,2,stimuli/blue_flower.png,stimuli/green_flower.png,stimuli/yellow_flower.png,stimuli/red_flower.png,left,stimuli/objects/star.jpg,0,2,stimuli/grey_butterfly.png,0,3,2020-12-18_10h14.40.219,premce3DEU_ses-02_part-01_label-phase1,2020.1.2,MacIntel,60,,,,,right,0,1.208,0,20,20,20,1,,,,,,,,
,,,,,0,"[0,0,1,1,0,0,1,1,1,1,1,1,1,1,1,1,0,1,1,1,1,1,1,1,1,1,1,1,1,1,1]",0,,,,,,stimuli/grey_butterfly.png,stimuli/white_butterfly.png,1,stimuli/green_flower.png,stimuli/blue_flower.png,stimuli/red_flower.png,stimuli/yellow_flower.png,down,stimuli/objects/shelves.jpg,1,2,stimuli/grey_butterfly.png,1,3,2020-12-18_10h14.40.219,premce3DEU_ses-02_part-01_label-phase1,2020.1.2,MacIntel,60,,,,,up,0,0.853,0,21,21,21,1,,,,,,,,
,,,,,1,"[0,0,1,1,0,0,1,1,1,1,1,1,1,1,1,1,0,1,1,1,1,1,1,1,1,1,1,1,1,1,1,0]",1,,,,,,stimuli/white_butterfly.png,stimuli/grey_butterfly.png,2,stimuli/yellow_flower.png,stimuli/red_flower.png,stimuli/green_flower.png,stimuli/blue_flower.png,up,stimuli/objects/cork02.jpg,1,2,stimuli/grey_butterfly.png,1,3,2020-12-18_10h14.40.219,premce3DEU_ses-02_part-01_label-phase1,2020.1.2,MacIntel,60,,,,,up,1,1.146,0,22,22,22,1,,,,,,,,
,,,,,1,"[0,0,1,1,0,0,1,1,1,1,1,1,1,1,1,1,0,1,1,1,1,1,1,1,1,1,1,1,1,1,1,0,1]",1,,,,,,stimuli/grey_butterfly.png,stimuli/white_butterfly.png,1,stimuli/red_flower.png,stimuli/yellow_flower.png,stimuli/blue_flower.png,stimuli/green_flower.png,left,stimuli/objects/cloud.jpg,1,2,stimuli/grey_butterfly.png,1,3,2020-12-18_10h14.40.219,premce3DEU_ses-02_part-01_label-phase1,2020.1.2,MacIntel,60,,,,,left,1,0.489,0,23,23,23,1,,,,,,,,
,,,,,0,"[0,0,1,1,0,0,1,1,1,1,1,1,1,1,1,1,0,1,1,1,1,1,1,1,1,1,1,1,1,1,1,0,1,1]",1,,,,,,stimuli/grey_butterfly.png,stimuli/white_butterfly.png,2,stimuli/red_flower.png,stimuli/green_flower.png,stimuli/yellow_flower.png,stimuli/blue_flower.png,down,stimuli/objects/rollerblade.jpg,0,2,stimuli/white_butterfly.png,1,3,2020-12-18_10h14.40.219,premce3DEU_ses-02_part-01_label-phase1,2020.1.2,MacIntel,60,,,,,right,0,0.549,0,24,24,24,1,,,,,,,,
,,,,,1,"[0,0,1,1,0,0,1,1,1,1,1,1,1,1,1,1,0,1,1,1,1,1,1,1,1,1,1,1,1,1,1,0,1,1]",1,,,,,,stimuli/white_butterfly.png,stimuli/grey_butterfly.png,2,stimuli/red_flower.png,stimuli/blue_flower.png,stimuli/yellow_flower.png,stimuli/green_flower.png,left,stimuli/objects/beaver.jpg,1,2,stimuli/grey_butterfly.png,1,3,2020-12-18_10h14.40.219,premce3DEU_ses-02_part-01_label-phase1,2020.1.2,MacIntel,60,,,,,left,1,0.764,0,25,25,25,1,,,,,,,,
,,,,,0,"[0,0,1,1,0,0,1,1,1,1,1,1,1,1,1,1,0,1,1,1,1,1,1,1,1,1,1,1,1,1,1,0,1,1,1]",0,,,,,,stimuli/grey_butterfly.png,stimuli/white_butterfly.png,1,stimuli/yellow_flower.png,stimuli/blue_flower.png,stimuli/green_flower.png,stimuli/red_flower.png,right,stimuli/objects/urinal.jpg,1,2,stimuli/grey_butterfly.png,1,3,2020-12-18_10h14.40.219,premce3DEU_ses-02_part-01_label-phase1,2020.1.2,MacIntel,60,,,,,up,0,0.703,0,26,26,26,1,,,,,,,,
,,,,,1,"[0,0,1,1,0,0,1,1,1,1,1,1,1,1,1,1,0,1,1,1,1,1,1,1,1,1,1,1,1,1,1,0,1,1,1,0]",1,,,,,,stimuli/white_butterfly.png,stimuli/grey_butterfly.png,2,stimuli/red_flower.png,stimuli/yellow_flower.png,stimuli/green_flower.png,stimuli/blue_flower.png,left,stimuli/objects/tulip02.jpg,1,2,stimuli/grey_butterfly.png,1,3,2020-12-18_10h14.40.219,premce3DEU_ses-02_part-01_label-phase1,2020.1.2,MacIntel,60,,,,,left,1,0.578,0,27,27,27,1,,,,,,,,
,,,,,1,"[0,0,1,1,0,0,1,1,1,1,1,1,1,1,1,1,0,1,1,1,1,1,1,1,1,1,1,1,1,1,1,0,1,1,1,0,1]",1,,,,,,stimuli/grey_butterfly.png,stimuli/white_butterfly.png,2,stimuli/blue_flower.png,stimuli/red_flower.png,stimuli/green_flower.png,stimuli/yellow_flower.png,left,stimuli/objects/horse.jpg,1,2,stimuli/white_butterfly.png,1,3,2020-12-18_10h14.40.219,premce3DEU_ses-02_part-01_label-phase1,2020.1.2,MacIntel,60,,,,,left,1,0.483,0,28,28,28,1,,,,,,,,
,,,,,1,"[0,0,1,1,0,0,1,1,1,1,1,1,1,1,1,1,0,1,1,1,1,1,1,1,1,1,1,1,1,1,1,0,1,1,1,0,1,1]",1,,,,,,stimuli/grey_butterfly.png,stimuli/white_butterfly.png,1,stimuli/green_flower.png,stimuli/red_flower.png,stimuli/yellow_flower.png,stimuli/blue_flower.png,up,stimuli/objects/musicstand.jpg,1,2,stimuli/grey_butterfly.png,1,3,2020-12-18_10h14.40.219,premce3DEU_ses-02_part-01_label-phase1,2020.1.2,MacIntel,60,,,,,up,1,0.54,0,29,29,29,1,,,,,,,,
,,,,,1,"[0,0,1,1,0,0,1,1,1,1,1,1,1,1,1,1,0,1,1,1,1,1,1,1,1,1,1,1,1,1,1,0,1,1,1,0,1,1,1]",1,,,,,,stimuli/white_butterfly.png,stimuli/grey_butterfly.png,1,stimuli/green_flower.png,stimuli/red_flower.png,stimuli/yellow_flower.png,stimuli/blue_flower.png,right,stimuli/objects/frisbee.jpg,1,2,stimuli/white_butterfly.png,1,3,2020-12-18_10h14.40.219,premce3DEU_ses-02_part-01_label-phase1,2020.1.2,MacIntel,60,,,,,right,1,1,0,30,30,30,1,,,,,,,,
,,,,,1,"[0,0,1,1,0,0,1,1,1,1,1,1,1,1,1,1,0,1,1,1,1,1,1,1,1,1,1,1,1,1,1,0,1,1,1,0,1,1,1,1]",1,,,,,,stimuli/white_butterfly.png,stimuli/grey_butterfly.png,2,stimuli/yellow_flower.png,stimuli/red_flower.png,stimuli/blue_flower.png,stimuli/green_flower.png,up,stimuli/objects/footballhelmet.jpg,1,2,stimuli/grey_butterfly.png,1,3,2020-12-18_10h14.40.219,premce3DEU_ses-02_part-01_label-phase1,2020.1.2,MacIntel,60,,,,,up,1,0.804,0,31,31,31,1,,,,,,,,
,,,,,1,"[0,0,1,1,0,0,1,1,1,1,1,1,1,1,1,1,0,1,1,1,1,1,1,1,1,1,1,1,1,1,1,0,1,1,1,0,1,1,1,1,1]",1,,,,,,stimuli/grey_butterfly.png,stimuli/white_butterfly.png,2,stimuli/blue_flower.png,stimuli/yellow_flower.png,stimuli/green_flower.png,stimuli/red_flower.png,left,stimuli/objects/soccerball.jpg,1,2,stimuli/white_butterfly.png,1,3,2020-12-18_10h14.40.219,premce3DEU_ses-02_part-01_label-phase1,2020.1.2,MacIntel,60,,,,,left,1,1,0,32,32,32,1,,,,,,,,
,,,,,1,"[0,0,1,1,0,0,1,1,1,1,1,1,1,1,1,1,0,1,1,1,1,1,1,1,1,1,1,1,1,1,1,0,1,1,1,0,1,1,1,1,1,1]",1,,,,,,stimuli/grey_butterfly.png,stimuli/white_butterfly.png,1,stimuli/red_flower.png,stimuli/blue_flower.png,stimuli/yellow_flower.png,stimuli/green_flower.png,left,stimuli/objects/windshieldwiper02.jpg,1,2,stimuli/grey_butterfly.png,1,3,2020-12-18_10h14.40.219,premce3DEU_ses-02_part-01_label-phase1,2020.1.2,MacIntel,60,,,,,left,1,0.743,0,33,33,33,1,,,,,,,,
,,,,,1,"[0,0,1,1,0,0,1,1,1,1,1,1,1,1,1,1,0,1,1,1,1,1,1,1,1,1,1,1,1,1,1,0,1,1,1,0,1,1,1,1,1,1,1]",1,,,,,,stimuli/grey_butterfly.png,stimuli/white_butterfly.png,2,stimuli/green_flower.png,stimuli/red_flower.png,stimuli/yellow_flower.png,stimuli/blue_flower.png,right,stimuli/objects/windturbine.jpg,1,2,stimuli/white_butterfly.png,1,3,2020-12-18_10h14.40.219,premce3DEU_ses-02_part-01_label-phase1,2020.1.2,MacIntel,60,,,,,right,1,1.413,0,34,34,34,1,,,,,,,,
,,,,,1,"[0,0,1,1,0,0,1,1,1,1,1,1,1,1,1,1,0,1,1,1,1,1,1,1,1,1,1,1,1,1,1,0,1,1,1,0,1,1,1,1,1,1,1,1]",1,,,,,,stimuli/grey_butterfly.png,stimuli/white_butterfly.png,1,stimuli/green_flower.png,stimuli/yellow_flower.png,stimuli/blue_flower.png,stimuli/red_flower.png,right,stimuli/objects/butterfly2.jpg,1,2,stimuli/grey_butterfly.png,1,3,2020-12-18_10h14.40.219,premce3DEU_ses-02_part-01_label-phase1,2020.1.2,MacIntel,60,,,,,right,1,1.919,0,35,35,35,1,,,,,,,,
,,,,,1,"[0,0,1,1,0,0,1,1,1,1,1,1,1,1,1,1,0,1,1,1,1,1,1,1,1,1,1,1,1,1,1,0,1,1,1,0,1,1,1,1,1,1,1,1,1]",1,,,,,,stimuli/white_butterfly.png,stimuli/grey_butterfly.png,1,stimuli/blue_flower.png,stimuli/red_flower.png,stimuli/yellow_flower.png,stimuli/green_flower.png,left,stimuli/objects/blender.jpg,1,2,stimuli/white_butterfly.png,1,3,2020-12-18_10h14.40.219,premce3DEU_ses-02_part-01_label-phase1,2020.1.2,MacIntel,60,,,,,left,1,0.892,0,36,36,36,1,,,,,,,,
,,,,,1,"[0,0,1,1,0,0,1,1,1,1,1,1,1,1,1,1,0,1,1,1,1,1,1,1,1,1,1,1,1,1,1,0,1,1,1,0,1,1,1,1,1,1,1,1,1,1]",1,,,,,,stimuli/grey_butterfly.png,stimuli/white_butterfly.png,2,stimuli/green_flower.png,stimuli/yellow_flower.png,stimuli/blue_flower.png,stimuli/red_flower.png,down,stimuli/objects/rockingchair.jpg,1,2,stimuli/white_butterfly.png,1,3,2020-12-18_10h14.40.219,premce3DEU_ses-02_part-01_label-phase1,2020.1.2,MacIntel,60,,,,,down,1,0.817,0,37,37,37,1,,,,,,,,
,,,,,1,"[0,0,1,1,0,0,1,1,1,1,1,1,1,1,1,1,0,1,1,1,1,1,1,1,1,1,1,1,1,1,1,0,1,1,1,0,1,1,1,1,1,1,1,1,1,1,1]",1,,,,,,stimuli/grey_butterfly.png,stimuli/white_butterfly.png,2,stimuli/green_flower.png,stimuli/yellow_flower.png,stimuli/red_flower.png,stimuli/blue_flower.png,right,stimuli/objects/desktopcomputer.jpg,1,2,stimuli/white_butterfly.png,1,3,2020-12-18_10h14.40.219,premce3DEU_ses-02_part-01_label-phase1,2020.1.2,MacIntel,60,,,,,right,1,0.925,0,38,38,38,1,,,,,,,,
,,,,,1,"[0,0,1,1,0,0,1,1,1,1,1,1,1,1,1,1,0,1,1,1,1,1,1,1,1,1,1,1,1,1,1,0,1,1,1,0,1,1,1,1,1,1,1,1,1,1,1,1]",1,,,,,,stimuli/white_butterfly.png,stimuli/grey_butterfly.png,2,stimuli/green_flower.png,stimuli/red_flower.png,stimuli/blue_flower.png,stimuli/yellow_flower.png,up,stimuli/objects/tricycle.jpg,1,2,stimuli/grey_butterfly.png,1,3,2020-12-18_10h14.40.219,premce3DEU_ses-02_part-01_label-phase1,2020.1.2,MacIntel,60,,,,,up,1,0.761,0,39,39,39,1,,,,,,,,
,,,,,1,"[0,0,1,1,0,0,1,1,1,1,1,1,1,1,1,1,0,1,1,1,1,1,1,1,1,1,1,1,1,1,1,0,1,1,1,0,1,1,1,1,1,1,1,1,1,1,1,1,1]",1,,,,,,stimuli/grey_butterfly.png,stimuli/white_butterfly.png,1,stimuli/blue_flower.png,stimuli/yellow_flower.png,stimuli/green_flower.png,stimuli/red_flower.png,right,stimuli/objects/dreamcatcher.jpg,1,2,stimuli/grey_butterfly.png,1,3,2020-12-18_10h14.40.219,premce3DEU_ses-02_part-01_label-phase1,2020.1.2,MacIntel,60,,,,,right,1,1.084,0,40,40,40,1,,,,,,,,
,,,,,1,"[0,0,1,1,0,0,1,1,1,1,1,1,1,1,1,1,0,1,1,1,1,1,1,1,1,1,1,1,1,1,1,0,1,1,1,0,1,1,1,1,1,1,1,1,1,1,1,1,1,1]",1,,,,,,stimuli/grey_butterfly.png,stimuli/white_butterfly.png,2,stimuli/green_flower.png,stimuli/blue_flower.png,stimuli/red_flower.png,stimuli/yellow_flower.png,up,stimuli/objects/contactlens.jpg,1,2,stimuli/white_butterfly.png,1,3,2020-12-18_10h14.40.219,premce3DEU_ses-02_part-01_label-phase1,2020.1.2,MacIntel,60,,,,,up,1,0.594,0,41,41,41,1,,,,,,,,
,,,,,,,,,,,,,,,,,,,,,,,,,,3,2020-12-18_10h14.40.219,premce3DEU_ses-02_part-01_label-phase1,2020.1.2,MacIntel,60,,,,,,,,,,,,,0,0,0,0,1,condition_files/tasklistAplus4.csv,,
,,,,,0,"[0,0,1,1,0,0,1,1,1,1,1,1,1,1,1,1,0,1,1,1,1,1,1,1,1,1,1,1,1,1,1,0,1,1,1,0,1,1,1,1,1,1,1,1,1,1,1,1,1,1,1]",0,,,,,,stimuli/grey_butterfly.png,stimuli/white_butterfly.png,2,stimuli/yellow_flower.png,stimuli/blue_flower.png,stimuli/red_flower.png,stimuli/green_flower.png,right,stimuli/objects/sailboat.jpg,1,3,stimuli/white_butterfly.png,0,3,2020-12-18_10h14.40.219,premce3DEU_ses-02_part-01_label-phase1,2020.1.2,MacIntel,60,,,,,up,0,0.973,0,0,0,0,1,,,,,,,,
,,,,,0,"[0,0,1,1,0,0,1,1,1,1,1,1,1,1,1,1,0,1,1,1,1,1,1,1,1,1,1,1,1,1,1,0,1,1,1,0,1,1,1,1,1,1,1,1,1,1,1,1,1,1,1,0]",0,,,,,,stimuli/white_butterfly.png,stimuli/grey_butterfly.png,1,stimuli/red_flower.png,stimuli/blue_flower.png,stimuli/yellow_flower.png,stimuli/green_flower.png,right,stimuli/objects/asianelephant.jpg,1,3,stimuli/white_butterfly.png,0,3,2020-12-18_10h14.40.219,premce3DEU_ses-02_part-01_label-phase1,2020.1.2,MacIntel,60,,,,,up,0,0.454,0,1,1,1,1,,,,,,,,
,,,,,0,"[0,0,1,1,0,0,1,1,1,1,1,1,1,1,1,1,0,1,1,1,1,1,1,1,1,1,1,1,1,1,1,0,1,1,1,0,1,1,1,1,1,1,1,1,1,1,1,1,1,1,1,0,0]",0,,,,,,stimuli/white_butterfly.png,stimuli/grey_butterfly.png,2,stimuli/green_flower.png,stimuli/yellow_flower.png,stimuli/blue_flower.png,stimuli/red_flower.png,up,stimuli/objects/triangle.jpg,1,3,stimuli/grey_butterfly.png,0,3,2020-12-18_10h14.40.219,premce3DEU_ses-02_part-01_label-phase1,2020.1.2,MacIntel,60,,,,,right,0,0.672,0,2,2,2,1,,,,,,,,
,,,,,0,"[0,0,1,1,0,0,1,1,1,1,1,1,1,1,1,1,0,1,1,1,1,1,1,1,1,1,1,1,1,1,1,0,1,1,1,0,1,1,1,1,1,1,1,1,1,1,1,1,1,1,1,0,0,0]",0,,,,,,stimuli/white_butterfly.png,stimuli/grey_butterfly.png,1,stimuli/blue_flower.png,stimuli/red_flower.png,stimuli/yellow_flower.png,stimuli/green_flower.png,right,stimuli/objects/redonion.jpg,1,3,stimuli/white_butterfly.png,0,3,2020-12-18_10h14.40.219,premce3DEU_ses-02_part-01_label-phase1,2020.1.2,MacIntel,60,,,,,left,0,1.211,0,3,3,3,1,,,,,,,,
,,,,,0,"[0,0,1,1,0,0,1,1,1,1,1,1,1,1,1,1,0,1,1,1,1,1,1,1,1,1,1,1,1,1,1,0,1,1,1,0,1,1,1,1,1,1,1,1,1,1,1,1,1,1,1,0,0,0,0]",0,,,,,,stimuli/white_butterfly.png,stimuli/grey_butterfly.png,1,stimuli/yellow_flower.png,stimuli/green_flower.png,stimuli/blue_flower.png,stimuli/red_flower.png,left,stimuli/objects/barn.jpg,0,3,stimuli/white_butterfly.png,0,3,2020-12-18_10h14.40.219,premce3DEU_ses-02_part-01_label-phase1,2020.1.2,MacIntel,60,,,,,up,0,0.442,0,4,4,4,1,,,,,,,,
,,,,,0,"[0,0,1,1,0,0,1,1,1,1,1,1,1,1,1,1,0,1,1,1,1,1,1,1,1,1,1,1,1,1,1,0,1,1,1,0,1,1,1,1,1,1,1,1,1,1,1,1,1,1,1,0,0,0,0]",0,,,,,,stimuli/white_butterfly.png,stimuli/grey_butterfly.png,2,stimuli/yellow_flower.png,stimuli/red_flower.png,stimuli/blue_flower.png,stimuli/green_flower.png,left,stimuli/objects/acorn.jpg,1,3,stimuli/grey_butterfly.png,0,3,2020-12-18_10h14.40.219,premce3DEU_ses-02_part-01_label-phase1,2020.1.2,MacIntel,60,,,,,up,0,0.527,0,5,5,5,1,,,,,,,,
,,,,,0,"[0,0,1,1,0,0,1,1,1,1,1,1,1,1,1,1,0,1,1,1,1,1,1,1,1,1,1,1,1,1,1,0,1,1,1,0,1,1,1,1,1,1,1,1,1,1,1,1,1,1,1,0,0,0,0,0]",0,,,,,,stimuli/grey_butterfly.png,stimuli/white_butterfly.png,2,stimuli/blue_flower.png,stimuli/yellow_flower.png,stimuli/green_flower.png,stimuli/red_flower.png,down,stimuli/objects/communitymailbox.jpg,1,3,stimuli/white_butterfly.png,0,3,2020-12-18_10h14.40.219,premce3DEU_ses-02_part-01_label-phase1,2020.1.2,MacIntel,60,,,,,left,0,0.583,0,6,6,6,1,,,,,,,,
,,,,,0,"[0,0,1,1,0,0,1,1,1,1,1,1,1,1,1,1,0,1,1,1,1,1,1,1,1,1,1,1,1,1,1,0,1,1,1,0,1,1,1,1,1,1,1,1,1,1,1,1,1,1,1,0,0,0,0,0,0]",0,,,,,,stimuli/grey_butterfly.png,stimuli/white_butterfly.png,2,stimuli/blue_flower.png,stimuli/green_flower.png,stimuli/yellow_flower.png,stimuli/red_flower.png,up,stimuli/objects/handheldtelescope.jpg,1,3,stimuli/white_butterfly.png,0,3,2020-12-18_10h14.40.219,premce3DEU_ses-02_part-01_label-phase1,2020.1.2,MacIntel,60,,,,,left,0,0.802,0,7,7,7,1,,,,,,,,
,,,,,0,"[0,0,1,1,0,0,1,1,1,1,1,1,1,1,1,1,0,1,1,1,1,1,1,1,1,1,1,1,1,1,1,0,1,1,1,0,1,1,1,1,1,1,1,1,1,1,1,1,1,1,1,0,0,0,0,0,0,0]",0,,,,,,stimuli/white_butterfly.png,stimuli/grey_butterfly.png,2,stimuli/blue_flower.png,stimuli/green_flower.png,stimuli/red_flower.png,stimuli/yellow_flower.png,right,stimuli/objects/callbell.jpg,1,3,stimuli/grey_butterfly.png,0,3,2020-12-18_10h14.40.219,premce3DEU_ses-02_part-01_label-phase1,2020.1.2,MacIntel,60,,,,,down,0,1.264,0,8,8,8,1,,,,,,,,
,,,,,1,"[0,0,1,1,0,0,1,1,1,1,1,1,1,1,1,1,0,1,1,1,1,1,1,1,1,1,1,1,1,1,1,0,1,1,1,0,1,1,1,1,1,1,1,1,1,1,1,1,1,1,1,0,0,0,0,0,0,0,0]",1,,,,,,stimuli/grey_butterfly.png,stimuli/white_butterfly.png,2,stimuli/green_flower.png,stimuli/blue_flower.png,stimuli/yellow_flower.png,stimuli/red_flower.png,left,stimuli/objects/candycane01a.jpg,1,3,stimuli/white_butterfly.png,0,3,2020-12-18_10h14.40.219,premce3DEU_ses-02_part-01_label-phase1,2020.1.2,MacIntel,60,,,,,left,1,0.488,0,9,9,9,1,,,,,,,,
,,,,,1,"[0,0,1,1,0,0,1,1,1,1,1,1,1,1,1,1,0,1,1,1,1,1,1,1,1,1,1,1,1,1,1,0,1,1,1,0,1,1,1,1,1,1,1,1,1,1,1,1,1,1,1,0,0,0,0,0,0,0,0,1]",1,,,,,,stimuli/white_butterfly.png,stimuli/grey_butterfly.png,2,stimuli/red_flower.png,stimuli/blue_flower.png,stimuli/yellow_flower.png,stimuli/green_flower.png,down,stimuli/objects/coffeemaker.jpg,1,3,stimuli/grey_butterfly.png,0,3,2020-12-18_10h14.40.219,premce3DEU_ses-02_part-01_label-phase1,2020.1.2,MacIntel,60,,,,,down,1,0.692,0,10,10,10,1,,,,,,,,
,,,,,0,"[0,0,1,1,0,0,1,1,1,1,1,1,1,1,1,1,0,1,1,1,1,1,1,1,1,1,1,1,1,1,1,0,1,1,1,0,1,1,1,1,1,1,1,1,1,1,1,1,1,1,1,0,0,0,0,0,0,0,0,1,1]",0,,,,,,stimuli/grey_butterfly.png,stimuli/white_butterfly.png,2,stimuli/yellow_flower.png,stimuli/red_flower.png,stimuli/green_flower.png,stimuli/blue_flower.png,down,stimuli/objects/electricguitar01.jpg,1,3,stimuli/white_butterfly.png,0,3,2020-12-18_10h14.40.219,premce3DEU_ses-02_part-01_label-phase1,2020.1.2,MacIntel,60,,,,,left,0,0.904,0,11,11,11,1,,,,,,,,
,,,,,1,"[0,0,1,1,0,0,1,1,1,1,1,1,1,1,1,1,0,1,1,1,1,1,1,1,1,1,1,1,1,1,1,0,1,1,1,0,1,1,1,1,1,1,1,1,1,1,1,1,1,1,1,0,0,0,0,0,0,0,0,1,1,0]",1,,,,,,stimuli/white_butterfly.png,stimuli/grey_butterfly.png,2,stimuli/yellow_flower.png,stimuli/red_flower.png,stimuli/green_flower.png,stimuli/blue_flower.png,left,stimuli/objects/weddingcake.jpg,1,3,stimuli/grey_butterfly.png,0,3,2020-12-18_10h14.40.219,premce3DEU_ses-02_part-01_label-phase1,2020.1.2,MacIntel,60,,,,,left,1,0.986,0,12,12,12,1,,,,,,,,
,,,,,1,"[0,0,1,1,0,0,1,1,1,1,1,1,1,1,1,1,0,1,1,1,1,1,1,1,1,1,1,1,1,1,1,0,1,1,1,0,1,1,1,1,1,1,1,1,1,1,1,1,1,1,1,0,0,0,0,0,0,0,0,1,1,0,1]",1,,,,,,stimuli/grey_butterfly.png,stimuli/white_butterfly.png,1,stimuli/yellow_flower.png,stimuli/blue_flower.png,stimuli/red_flower.png,stimuli/green_flower.png,left,stimuli/objects/balcony02.jpg,1,3,stimuli/grey_butterfly.png,0,3,2020-12-18_10h14.40.219,premce3DEU_ses-02_part-01_label-phase1,2020.1.2,MacIntel,60,,,,,left,1,0.682,0,13,13,13,1,,,,,,,,
,,,,,1,"[0,0,1,1,0,0,1,1,1,1,1,1,1,1,1,1,0,1,1,1,1,1,1,1,1,1,1,1,1,1,1,0,1,1,1,0,1,1,1,1,1,1,1,1,1,1,1,1,1,1,1,0,0,0,0,0,0,0,0,1,1,0,1,1]",1,,,,,,stimuli/white_butterfly.png,stimuli/grey_butterfly.png,2,stimuli/blue_flower.png,stimuli/red_flower.png,stimuli/green_flower.png,stimuli/yellow_flower.png,right,stimuli/objects/cashregister01.jpg,1,3,stimuli/grey_butterfly.png,0,3,2020-12-18_10h14.40.219,premce3DEU_ses-02_part-01_label-phase1,2020.1.2,MacIntel,60,,,,,right,1,0.54,0,14,14,14,1,,,,,,,,
,,,,,1,"[0,0,1,1,0,0,1,1,1,1,1,1,1,1,1,1,0,1,1,1,1,1,1,1,1,1,1,1,1,1,1,0,1,1,1,0,1,1,1,1,1,1,1,1,1,1,1,1,1,1,1,0,0,0,0,0,0,0,0,1,1,0,1,1,1]",1,,,,,,stimuli/grey_butterfly.png,stimuli/white_butterfly.png,2,stimuli/green_flower.png,stimuli/yellow_flower.png,stimuli/blue_flower.png,stimuli/red_flower.png,left,stimuli/objects/doubledoors.jpg,1,3,stimuli/white_butterfly.png,0,3,2020-12-18_10h14.40.219,premce3DEU_ses-02_part-01_label-phase1,2020.1.2,MacIntel,60,,,,,left,1,0.491,0,15,15,15,1,,,,,,,,
,,,,,1,"[0,0,1,1,0,0,1,1,1,1,1,1,1,1,1,1,0,1,1,1,1,1,1,1,1,1,1,1,1,1,1,0,1,1,1,0,1,1,1,1,1,1,1,1,1,1,1,1,1,1,1,0,0,0,0,0,0,0,0,1,1,0,1,1,1,1]",1,,,,,,stimuli/white_butterfly.png,stimuli/grey_butterfly.png,1,stimuli/green_flower.png,stimuli/red_flower.png,stimuli/yellow_flower.png,stimuli/blue_flower.png,left,stimuli/objects/butterfly3.jpg,1,3,stimuli/white_butterfly.png,0,3,2020-12-18_10h14.40.219,premce3DEU_ses-02_part-01_label-phase1,2020.1.2,MacIntel,60,,,,,left,1,0.624,0,16,16,16,1,,,,,,,,
,,,,,0,"[0,0,1,1,0,0,1,1,1,1,1,1,1,1,1,1,0,1,1,1,1,1,1,1,1,1,1,1,1,1,1,0,1,1,1,0,1,1,1,1,1,1,1,1,1,1,1,1,1,1,1,0,0,0,0,0,0,0,0,1,1,0,1,1,1,1,1]",1,,,,,,stimuli/grey_butterfly.png,stimuli/white_butterfly.png,1,stimuli/blue_flower.png,stimuli/yellow_flower.png,stimuli/red_flower.png,stimuli/green_flower.png,down,stimuli/objects/car.jpg,0,3,stimuli/grey_butterfly.png,0,3,2020-12-18_10h14.40.219,premce3DEU_ses-02_part-01_label-phase1,2020.1.2,MacIntel,60,,,,,up,0,0.583,0,17,17,17,1,,,,,,,,
,,,,,0,"[0,0,1,1,0,0,1,1,1,1,1,1,1,1,1,1,0,1,1,1,1,1,1,1,1,1,1,1,1,1,1,0,1,1,1,0,1,1,1,1,1,1,1,1,1,1,1,1,1,1,1,0,0,0,0,0,0,0,0,1,1,0,1,1,1,1,1]",0,,,,,,stimuli/grey_butterfly.png,stimuli/white_butterfly.png,2,stimuli/green_flower.png,stimuli/red_flower.png,stimuli/yellow_flower.png,stimuli/blue_flower.png,left,stimuli/objects/waterfountain02.jpg,1,3,stimuli/white_butterfly.png,0,3,2020-12-18_10h14.40.219,premce3DEU_ses-02_part-01_label-phase1,2020.1.2,MacIntel,60,,,,,right,0,0.838,0,18,18,18,1,,,,,,,,
,,,,,1,"[0,0,1,1,0,0,1,1,1,1,1,1,1,1,1,1,0,1,1,1,1,1,1,1,1,1,1,1,1,1,1,0,1,1,1,0,1,1,1,1,1,1,1,1,1,1,1,1,1,1,1,0,0,0,0,0,0,0,0,1,1,0,1,1,1,1,1,0]",1,,,,,,stimuli/grey_butterfly.png,stimuli/white_butterfly.png,1,stimuli/yellow_flower.png,stimuli/red_flower.png,stimuli/green_flower.png,stimuli/blue_flower.png,left,stimuli/objects/panda.jpg,1,3,stimuli/grey_butterfly.png,0,3,2020-12-18_10h14.40.219,premce3DEU_ses-02_part-01_label-phase1,2020.1.2,MacIntel,60,,,,,left,1,1.375,0,19,19,19,1,,,,,,,,
,,,,,1,"[0,0,1,1,0,0,1,1,1,1,1,1,1,1,1,1,0,1,1,1,1,1,1,1,1,1,1,1,1,1,1,0,1,1,1,0,1,1,1,1,1,1,1,1,1,1,1,1,1,1,1,0,0,0,0,0,0,0,0,1,1,0,1,1,1,1,1,0,1]",1,,,,,,stimuli/white_butterfly.png,stimuli/grey_butterfly.png,1,stimuli/red_flower.png,stimuli/green_flower.png,stimuli/yellow_flower.png,stimuli/blue_flower.png,up,stimuli/objects/greywolf.jpg,1,3,stimuli/white_butterfly.png,0,3,2020-12-18_10h14.40.219,premce3DEU_ses-02_part-01_label-phase1,2020.1.2,MacIntel,60,,,,,up,1,1.566,0,20,20,20,1,,,,,,,,
,,,,,0,"[0,0,1,1,0,0,1,1,1,1,1,1,1,1,1,1,0,1,1,1,1,1,1,1,1,1,1,1,1,1,1,0,1,1,1,0,1,1,1,1,1,1,1,1,1,1,1,1,1,1,1,0,0,0,0,0,0,0,0,1,1,0,1,1,1,1,1,0,1,1]",1,,,,,,stimuli/grey_butterfly.png,stimuli/white_butterfly.png,1,stimuli/red_flower.png,stimuli/green_flower.png,stimuli/yellow_flower.png,stimuli/blue_flower.png,up,stimuli/objects/tie02.jpg,0,3,stimuli/grey_butterfly.png,1,3,2020-12-18_10h14.40.219,premce3DEU_ses-02_part-01_label-phase1,2020.1.2,MacIntel,60,,,,,down,0,1.144,0,21,21,21,1,,,,,,,,
,,,,,0,"[0,0,1,1,0,0,1,1,1,1,1,1,1,1,1,1,0,1,1,1,1,1,1,1,1,1,1,1,1,1,1,0,1,1,1,0,1,1,1,1,1,1,1,1,1,1,1,1,1,1,1,0,0,0,0,0,0,0,0,1,1,0,1,1,1,1,1,0,1,1]",0,,,,,,stimuli/white_butterfly.png,stimuli/grey_butterfly.png,1,stimuli/yellow_flower.png,stimuli/blue_flower.png,stimuli/green_flower.png,stimuli/red_flower.png,down,stimuli/objects/forklift.jpg,1,3,stimuli/white_butterfly.png,1,3,2020-12-18_10h14.40.219,premce3DEU_ses-02_part-01_label-phase1,2020.1.2,MacIntel,60,,,,,left,0,2.1,0,22,22,22,1,,,,,,,,
,,,,,0,"[0,0,1,1,0,0,1,1,1,1,1,1,1,1,1,1,0,1,1,1,1,1,1,1,1,1,1,1,1,1,1,0,1,1,1,0,1,1,1,1,1,1,1,1,1,1,1,1,1,1,1,0,0,0,0,0,0,0,0,1,1,0,1,1,1,1,1,0,1,1,0]",0,,,,,,stimuli/grey_butterfly.png,stimuli/white_butterfly.png,1,stimuli/blue_flower.png,stimuli/red_flower.png,stimuli/yellow_flower.png,stimuli/green_flower.png,down,stimuli/objects/barrel01.jpg,1,3,stimuli/grey_butterfly.png,1,3,2020-12-18_10h14.40.219,premce3DEU_ses-02_part-01_label-phase1,2020.1.2,MacIntel,60,,,,,right,0,0.684,0,23,23,23,1,,,,,,,,
,,,,,1,"[0,0,1,1,0,0,1,1,1,1,1,1,1,1,1,1,0,1,1,1,1,1,1,1,1,1,1,1,1,1,1,0,1,1,1,0,1,1,1,1,1,1,1,1,1,1,1,1,1,1,1,0,0,0,0,0,0,0,0,1,1,0,1,1,1,1,1,0,1,1,0,0]",1,,,,,,stimuli/white_butterfly.png,stimuli/grey_butterfly.png,2,stimuli/green_flower.png,stimuli/red_flower.png,stimuli/yellow_flower.png,stimuli/blue_flower.png,down,stimuli/objects/fingerprint.jpg,1,3,stimuli/grey_butterfly.png,1,3,2020-12-18_10h14.40.219,premce3DEU_ses-02_part-01_label-phase1,2020.1.2,MacIntel,60,,,,,down,1,0.567,0,24,24,24,1,,,,,,,,
,,,,,0,"[0,0,1,1,0,0,1,1,1,1,1,1,1,1,1,1,0,1,1,1,1,1,1,1,1,1,1,1,1,1,1,0,1,1,1,0,1,1,1,1,1,1,1,1,1,1,1,1,1,1,1,0,0,0,0,0,0,0,0,1,1,0,1,1,1,1,1,0,1,1,0,0,1]",1,,,,,,stimuli/grey_butterfly.png,stimuli/white_butterfly.png,2,stimuli/yellow_flower.png,stimuli/green_flower.png,stimuli/blue_flower.png,stimuli/red_flower.png,down,stimuli/objects/salmon.jpg,0,3,stimuli/white_butterfly.png,1,3,2020-12-18_10h14.40.219,premce3DEU_ses-02_part-01_label-phase1,2020.1.2,MacIntel,60,,,,,up,0,2.217,0,25,25,25,1,,,,,,,,
,,,,,0,"[0,0,1,1,0,0,1,1,1,1,1,1,1,1,1,1,0,1,1,1,1,1,1,1,1,1,1,1,1,1,1,0,1,1,1,0,1,1,1,1,1,1,1,1,1,1,1,1,1,1,1,0,0,0,0,0,0,0,0,1,1,0,1,1,1,1,1,0,1,1,0,0,1]",1,,,,,,stimuli/white_butterfly.png,stimuli/grey_butterfly.png,2,stimuli/blue_flower.png,stimuli/green_flower.png,stimuli/yellow_flower.png,stimuli/red_flower.png,left,stimuli/objects/cymbal.jpg,0,3,stimuli/grey_butterfly.png,1,3,2020-12-18_10h14.40.219,premce3DEU_ses-02_part-01_label-phase1,2020.1.2,MacIntel,60,,,,,down,0,1.912,0,26,26,26,1,,,,,,,,
,,,,,1,"[0,0,1,1,0,0,1,1,1,1,1,1,1,1,1,1,0,1,1,1,1,1,1,1,1,1,1,1,1,1,1,0,1,1,1,0,1,1,1,1,1,1,1,1,1,1,1,1,1,1,1,0,0,0,0,0,0,0,0,1,1,0,1,1,1,1,1,0,1,1,0,0,1]",1,,,,,,stimuli/grey_butterfly.png,stimuli/white_butterfly.png,1,stimuli/green_flower.png,stimuli/red_flower.png,stimuli/blue_flower.png,stimuli/yellow_flower.png,right,stimuli/objects/bacon.jpg,1,3,stimuli/grey_butterfly.png,1,3,2020-12-18_10h14.40.219,premce3DEU_ses-02_part-01_label-phase1,2020.1.2,MacIntel,60,,,,,right,1,1.852,0,27,27,27,1,,,,,,,,
,,,,,1,"[0,0,1,1,0,0,1,1,1,1,1,1,1,1,1,1,0,1,1,1,1,1,1,1,1,1,1,1,1,1,1,0,1,1,1,0,1,1,1,1,1,1,1,1,1,1,1,1,1,1,1,0,0,0,0,0,0,0,0,1,1,0,1,1,1,1,1,0,1,1,0,0,1,1]",1,,,,,,stimuli/white_butterfly.png,stimuli/grey_butterfly.png,1,stimuli/green_flower.png,stimuli/yellow_flower.png,stimuli/red_flower.png,stimuli/blue_flower.png,left,stimuli/objects/witchhat.jpg,1,3,stimuli/white_butterfly.png,1,3,2020-12-18_10h14.40.219,premce3DEU_ses-02_part-01_label-phase1,2020.1.2,MacIntel,60,,,,,left,1,1.563,0,28,28,28,1,,,,,,,,
,,,,,0,"[0,0,1,1,0,0,1,1,1,1,1,1,1,1,1,1,0,1,1,1,1,1,1,1,1,1,1,1,1,1,1,0,1,1,1,0,1,1,1,1,1,1,1,1,1,1,1,1,1,1,1,0,0,0,0,0,0,0,0,1,1,0,1,1,1,1,1,0,1,1,0,0,1,1,1]",0,,,,,,stimuli/white_butterfly.png,stimuli/grey_butterfly.png,1,stimuli/blue_flower.png,stimuli/yellow_flower.png,stimuli/green_flower.png,stimuli/red_flower.png,down,stimuli/objects/hotdog.jpg,1,3,stimuli/white_butterfly.png,1,3,2020-12-18_10h14.40.219,premce3DEU_ses-02_part-01_label-phase1,2020.1.2,MacIntel,60,,,,,up,0,0.865,0,29,29,29,1,,,,,,,,
,,,,,1,"[0,0,1,1,0,0,1,1,1,1,1,1,1,1,1,1,0,1,1,1,1,1,1,1,1,1,1,1,1,1,1,0,1,1,1,0,1,1,1,1,1,1,1,1,1,1,1,1,1,1,1,0,0,0,0,0,0,0,0,1,1,0,1,1,1,1,1,0,1,1,0,0,1,1,1,0]",1,,,,,,stimuli/grey_butterfly.png,stimuli/white_butterfly.png,1,stimuli/red_flower.png,stimuli/yellow_flower.png,stimuli/blue_flower.png,stimuli/green_flower.png,up,stimuli/objects/jeans01.jpg,1,3,stimuli/grey_butterfly.png,1,3,2020-12-18_10h14.40.219,premce3DEU_ses-02_part-01_label-phase1,2020.1.2,MacIntel,60,,,,,up,1,1.447,0,30,30,30,1,,,,,,,,
,,,,,1,"[0,0,1,1,0,0,1,1,1,1,1,1,1,1,1,1,0,1,1,1,1,1,1,1,1,1,1,1,1,1,1,0,1,1,1,0,1,1,1,1,1,1,1,1,1,1,1,1,1,1,1,0,0,0,0,0,0,0,0,1,1,0,1,1,1,1,1,0,1,1,0,0,1,1,1,0,1]",1,,,,,,stimuli/grey_butterfly.png,stimuli/white_butterfly.png,2,stimuli/green_flower.png,stimuli/red_flower.png,stimuli/blue_flower.png,stimuli/yellow_flower.png,left,stimuli/objects/shovel01.jpg,1,3,stimuli/white_butterfly.png,1,3,2020-12-18_10h14.40.219,premce3DEU_ses-02_part-01_label-phase1,2020.1.2,MacIntel,60,,,,,left,1,0.486,0,31,31,31,1,,,,,,,,
,,,,,0,"[0,0,1,1,0,0,1,1,1,1,1,1,1,1,1,1,0,1,1,1,1,1,1,1,1,1,1,1,1,1,1,0,1,1,1,0,1,1,1,1,1,1,1,1,1,1,1,1,1,1,1,0,0,0,0,0,0,0,0,1,1,0,1,1,1,1,1,0,1,1,0,0,1,1,1,0,1,1]",0,,,,,,stimuli/white_butterfly.png,stimuli/grey_butterfly.png,1,stimuli/yellow_flower.png,stimuli/red_flower.png,stimuli/blue_flower.png,stimuli/green_flower.png,right,stimuli/objects/skihelmet01.jpg,1,3,stimuli/white_butterfly.png,1,3,2020-12-18_10h14.40.219,premce3DEU_ses-02_part-01_label-phase1,2020.1.2,MacIntel,60,,,,,,0,,0,32,32,32,1,,,,,,,,
,,,,,1,"[0,0,1,1,0,0,1,1,1,1,1,1,1,1,1,1,0,1,1,1,1,1,1,1,1,1,1,1,1,1,1,0,1,1,1,0,1,1,1,1,1,1,1,1,1,1,1,1,1,1,1,0,0,0,0,0,0,0,0,1,1,0,1,1,1,1,1,0,1,1,0,0,1,1,1,0,1,1,0]",1,,,,,,stimuli/grey_butterfly.png,stimuli/white_butterfly.png,1,stimuli/green_flower.png,stimuli/red_flower.png,stimuli/yellow_flower.png,stimuli/blue_flower.png,down,stimuli/objects/duck01.jpg,1,3,stimuli/grey_butterfly.png,1,3,2020-12-18_10h14.40.219,premce3DEU_ses-02_part-01_label-phase1,2020.1.2,MacIntel,60,,,,,down,1,1.019,0,33,33,33,1,,,,,,,,
,,,,,1,"[0,0,1,1,0,0,1,1,1,1,1,1,1,1,1,1,0,1,1,1,1,1,1,1,1,1,1,1,1,1,1,0,1,1,1,0,1,1,1,1,1,1,1,1,1,1,1,1,1,1,1,0,0,0,0,0,0,0,0,1,1,0,1,1,1,1,1,0,1,1,0,0,1,1,1,0,1,1,0,1]",1,,,,,,stimuli/grey_butterfly.png,stimuli/white_butterfly.png,2,stimuli/red_flower.png,stimuli/blue_flower.png,stimuli/yellow_flower.png,stimuli/green_flower.png,right,stimuli/objects/vacuumcleaner01.jpg,1,3,stimuli/white_butterfly.png,1,3,2020-12-18_10h14.40.219,premce3DEU_ses-02_part-01_label-phase1,2020.1.2,MacIntel,60,,,,,right,1,0.726,0,34,34,34,1,,,,,,,,
,,,,,1,"[0,0,1,1,0,0,1,1,1,1,1,1,1,1,1,1,0,1,1,1,1,1,1,1,1,1,1,1,1,1,1,0,1,1,1,0,1,1,1,1,1,1,1,1,1,1,1,1,1,1,1,0,0,0,0,0,0,0,0,1,1,0,1,1,1,1,1,0,1,1,0,0,1,1,1,0,1,1,0,1,1]",1,,,,,,stimuli/grey_butterfly.png,stimuli/white_butterfly.png,1,stimuli/blue_flower.png,stimuli/green_flower.png,stimuli/red_flower.png,stimuli/yellow_flower.png,right,stimuli/objects/chime.jpg,1,3,stimuli/grey_butterfly.png,1,3,2020-12-18_10h14.40.219,premce3DEU_ses-02_part-01_label-phase1,2020.1.2,MacIntel,60,,,,,right,1,1.626,0,35,35,35,1,,,,,,,,
,,,,,1,"[0,0,1,1,0,0,1,1,1,1,1,1,1,1,1,1,0,1,1,1,1,1,1,1,1,1,1,1,1,1,1,0,1,1,1,0,1,1,1,1,1,1,1,1,1,1,1,1,1,1,1,0,0,0,0,0,0,0,0,1,1,0,1,1,1,1,1,0,1,1,0,0,1,1,1,0,1,1,0,1,1,1]",1,,,,,,stimuli/grey_butterfly.png,stimuli/white_butterfly.png,1,stimuli/blue_flower.png,stimuli/green_flower.png,stimuli/yellow_flower.png,stimuli/red_flower.png,down,stimuli/objects/chipmunk.jpg,1,3,stimuli/grey_butterfly.png,1,3,2020-12-18_10h14.40.219,premce3DEU_ses-02_part-01_label-phase1,2020.1.2,MacIntel,60,,,,,down,1,0.807,0,36,36,36,1,,,,,,,,
,,,,,1,"[0,0,1,1,0,0,1,1,1,1,1,1,1,1,1,1,0,1,1,1,1,1,1,1,1,1,1,1,1,1,1,0,1,1,1,0,1,1,1,1,1,1,1,1,1,1,1,1,1,1,1,0,0,0,0,0,0,0,0,1,1,0,1,1,1,1,1,0,1,1,0,0,1,1,1,0,1,1,0,1,1,1,1]",1,,,,,,stimuli/grey_butterfly.png,stimuli/white_butterfly.png,1,stimuli/green_flower.png,stimuli/blue_flower.png,stimuli/red_flower.png,stimuli/yellow_flower.png,right,stimuli/objects/butterfly4.jpg,1,3,stimuli/grey_butterfly.png,1,3,2020-12-18_10h14.40.219,premce3DEU_ses-02_part-01_label-phase1,2020.1.2,MacIntel,60,,,,,right,1,1.054,0,37,37,37,1,,,,,,,,
,,,,,1,"[0,0,1,1,0,0,1,1,1,1,1,1,1,1,1,1,0,1,1,1,1,1,1,1,1,1,1,1,1,1,1,0,1,1,1,0,1,1,1,1,1,1,1,1,1,1,1,1,1,1,1,0,0,0,0,0,0,0,0,1,1,0,1,1,1,1,1,0,1,1,0,0,1,1,1,0,1,1,0,1,1,1,1,1]",1,,,,,,stimuli/grey_butterfly.png,stimuli/white_butterfly.png,2,stimuli/yellow_flower.png,stimuli/blue_flower.png,stimuli/green_flower.png,stimuli/red_flower.png,down,stimuli/objects/jellyfish.jpg,1,3,stimuli/white_butterfly.png,1,3,2020-12-18_10h14.40.219,premce3DEU_ses-02_part-01_label-phase1,2020.1.2,MacIntel,60,,,,,down,1,0.997,0,38,38,38,1,,,,,,,,
,,,,,0,"[0,0,1,1,0,0,1,1,1,1,1,1,1,1,1,1,0,1,1,1,1,1,1,1,1,1,1,1,1,1,1,0,1,1,1,0,1,1,1,1,1,1,1,1,1,1,1,1,1,1,1,0,0,0,0,0,0,0,0,1,1,0,1,1,1,1,1,0,1,1,0,0,1,1,1,0,1,1,0,1,1,1,1,1,1]",1,,,,,,stimuli/white_butterfly.png,stimuli/grey_butterfly.png,1,stimuli/green_flower.png,stimuli/red_flower.png,stimuli/blue_flower.png,stimuli/yellow_flower.png,up,stimuli/objects/gong.jpg,0,3,stimuli/white_butterfly.png,1,3,2020-12-18_10h14.40.219,premce3DEU_ses-02_part-01_label-phase1,2020.1.2,MacIntel,60,,,,,left,0,1.758,0,39,39,39,1,,,,,,,,
,,,,,1,"[0,0,1,1,0,0,1,1,1,1,1,1,1,1,1,1,0,1,1,1,1,1,1,1,1,1,1,1,1,1,1,0,1,1,1,0,1,1,1,1,1,1,1,1,1,1,1,1,1,1,1,0,0,0,0,0,0,0,0,1,1,0,1,1,1,1,1,0,1,1,0,0,1,1,1,0,1,1,0,1,1,1,1,1,1]",1,,,,,,stimuli/grey_butterfly.png,stimuli/white_butterfly.png,1,stimuli/green_flower.png,stimuli/yellow_flower.png,stimuli/red_flower.png,stimuli/blue_flower.png,up,stimuli/objects/apron.jpg,1,3,stimuli/grey_butterfly.png,1,3,2020-12-18_10h14.40.219,premce3DEU_ses-02_part-01_label-phase1,2020.1.2,MacIntel,60,,,,,up,1,1.581,0,40,40,40,1,,,,,,,,
,,,,,1,"[0,0,1,1,0,0,1,1,1,1,1,1,1,1,1,1,0,1,1,1,1,1,1,1,1,1,1,1,1,1,1,0,1,1,1,0,1,1,1,1,1,1,1,1,1,1,1,1,1,1,1,0,0,0,0,0,0,0,0,1,1,0,1,1,1,1,1,0,1,1,0,0,1,1,1,0,1,1,0,1,1,1,1,1,1,1]",1,,,,,,stimuli/grey_butterfly.png,stimuli/white_butterfly.png,1,stimuli/red_flower.png,stimuli/green_flower.png,stimuli/blue_flower.png,stimuli/yellow_flower.png,right,stimuli/objects/scalpel.jpg,1,3,stimuli/grey_butterfly.png,1,3,2020-12-18_10h14.40.219,premce3DEU_ses-02_part-01_label-phase1,2020.1.2,MacIntel,60,,,,,right,1,0.584,0,41,41,41,1,,,,,,,,
,,,,,,,,,,,,,,,,,,,,,,,,,,3,2020-12-18_10h14.40.219,premce3DEU_ses-02_part-01_label-phase1,2020.1.2,MacIntel,60,,,,,,,,,,,,,0,1,1,1,1,condition_files/tasklistB4.csv,,
,,,,,0,"[0,0,1,1,0,0,1,1,1,1,1,1,1,1,1,1,0,1,1,1,1,1,1,1,1,1,1,1,1,1,1,0,1,1,1,0,1,1,1,1,1,1,1,1,1,1,1,1,1,1,1,0,0,0,0,0,0,0,0,1,1,0,1,1,1,1,1,0,1,1,0,0,1,1,1,0,1,1,0,1,1,1,1,1,1,1,1]",0,,,,,,stimuli/white_butterfly.png,stimuli/grey_butterfly.png,1,stimuli/yellow_flower.png,stimuli/blue_flower.png,stimuli/green_flower.png,stimuli/red_flower.png,left,stimuli/objects/monarchbutterfly.jpg,1,4,stimuli/white_butterfly.png,0,3,2020-12-18_10h14.40.219,premce3DEU_ses-02_part-01_label-phase1,2020.1.2,MacIntel,60,,,,,down,0,1.348,0,0,0,0,1,,,,,,,,
,,,,,0,"[0,0,1,1,0,0,1,1,1,1,1,1,1,1,1,1,0,1,1,1,1,1,1,1,1,1,1,1,1,1,1,0,1,1,1,0,1,1,1,1,1,1,1,1,1,1,1,1,1,1,1,0,0,0,0,0,0,0,0,1,1,0,1,1,1,1,1,0,1,1,0,0,1,1,1,0,1,1,0,1,1,1,1,1,1,1,1,0]",0,,,,,,stimuli/grey_butterfly.png,stimuli/white_butterfly.png,1,stimuli/red_flower.png,stimuli/yellow_flower.png,stimuli/green_flower.png,stimuli/blue_flower.png,right,stimuli/objects/baseballglove.jpg,1,4,stimuli/grey_butterfly.png,0,3,2020-12-18_10h14.40.219,premce3DEU_ses-02_part-01_label-phase1,2020.1.2,MacIntel,60,,,,,up,0,0.57,0,1,1,1,1,,,,,,,,
,,,,,0,"[0,0,1,1,0,0,1,1,1,1,1,1,1,1,1,1,0,1,1,1,1,1,1,1,1,1,1,1,1,1,1,0,1,1,1,0,1,1,1,1,1,1,1,1,1,1,1,1,1,1,1,0,0,0,0,0,0,0,0,1,1,0,1,1,1,1,1,0,1,1,0,0,1,1,1,0,1,1,0,1,1,1,1,1,1,1,1,0,0]",0,,,,,,stimuli/white_butterfly.png,stimuli/grey_butterfly.png,2,stimuli/blue_flower.png,stimuli/red_flower.png,stimuli/yellow_flower.png,stimuli/green_flower.png,left,stimuli/objects/granolabar01.jpg,1,4,stimuli/grey_butterfly.png,0,3,2020-12-18_10h14.40.219,premce3DEU_ses-02_part-01_label-phase1,2020.1.2,MacIntel,60,,,,,down,0,2.284,0,2,2,2,1,,,,,,,,
,,,,,0,"[0,0,1,1,0,0,1,1,1,1,1,1,1,1,1,1,0,1,1,1,1,1,1,1,1,1,1,1,1,1,1,0,1,1,1,0,1,1,1,1,1,1,1,1,1,1,1,1,1,1,1,0,0,0,0,0,0,0,0,1,1,0,1,1,1,1,1,0,1,1,0,0,1,1,1,0,1,1,0,1,1,1,1,1,1,1,1,0,0,0]",0,,,,,,stimuli/grey_butterfly.png,stimuli/white_butterfly.png,2,stimuli/blue_flower.png,stimuli/red_flower.png,stimuli/yellow_flower.png,stimuli/green_flower.png,down,stimuli/objects/hockeypuck.jpg,1,4,stimuli/white_butterfly.png,0,3,2020-12-18_10h14.40.219,premce3DEU_ses-02_part-01_label-phase1,2020.1.2,MacIntel,60,,,,,right,0,0.547,0,3,3,3,1,,,,,,,,
,,,,,0,"[0,0,1,1,0,0,1,1,1,1,1,1,1,1,1,1,0,1,1,1,1,1,1,1,1,1,1,1,1,1,1,0,1,1,1,0,1,1,1,1,1,1,1,1,1,1,1,1,1,1,1,0,0,0,0,0,0,0,0,1,1,0,1,1,1,1,1,0,1,1,0,0,1,1,1,0,1,1,0,1,1,1,1,1,1,1,1,0,0,0,0]",0,,,,,,stimuli/white_butterfly.png,stimuli/grey_butterfly.png,1,stimuli/blue_flower.png,stimuli/green_flower.png,stimuli/yellow_flower.png,stimuli/red_flower.png,down,stimuli/objects/bookshelf.jpg,1,4,stimuli/white_butterfly.png,0,3,2020-12-18_10h14.40.219,premce3DEU_ses-02_part-01_label-phase1,2020.1.2,MacIntel,60,,,,,up,0,2.283,0,4,4,4,1,,,,,,,,
,,,,,1,"[0,0,1,1,0,0,1,1,1,1,1,1,1,1,1,1,0,1,1,1,1,1,1,1,1,1,1,1,1,1,1,0,1,1,1,0,1,1,1,1,1,1,1,1,1,1,1,1,1,1,1,0,0,0,0,0,0,0,0,1,1,0,1,1,1,1,1,0,1,1,0,0,1,1,1,0,1,1,0,1,1,1,1,1,1,1,1,0,0,0,0,0]",1,,,,,,stimuli/white_butterfly.png,stimuli/grey_butterfly.png,1,stimuli/red_flower.png,stimuli/blue_flower.png,stimuli/yellow_flower.png,stimuli/green_flower.png,down,stimuli/objects/gps.jpg,1,4,stimuli/white_butterfly.png,0,3,2020-12-18_10h14.40.219,premce3DEU_ses-02_part-01_label-phase1,2020.1.2,MacIntel,60,,,,,down,1,0.547,0,5,5,5,1,,,,,,,,
,,,,,1,"[0,0,1,1,0,0,1,1,1,1,1,1,1,1,1,1,0,1,1,1,1,1,1,1,1,1,1,1,1,1,1,0,1,1,1,0,1,1,1,1,1,1,1,1,1,1,1,1,1,1,1,0,0,0,0,0,0,0,0,1,1,0,1,1,1,1,1,0,1,1,0,0,1,1,1,0,1,1,0,1,1,1,1,1,1,1,1,0,0,0,0,0,1]",1,,,,,,stimuli/grey_butterfly.png,stimuli/white_butterfly.png,2,stimuli/green_flower.png,stimuli/red_flower.png,stimuli/blue_flower.png,stimuli/yellow_flower.png,right,stimuli/objects/porcupine.jpg,1,4,stimuli/white_butterfly.png,0,3,2020-12-18_10h14.40.219,premce3DEU_ses-02_part-01_label-phase1,2020.1.2,MacIntel,60,,,,,right,1,1.054,0,6,6,6,1,,,,,,,,
,,,,,1,"[0,0,1,1,0,0,1,1,1,1,1,1,1,1,1,1,0,1,1,1,1,1,1,1,1,1,1,1,1,1,1,0,1,1,1,0,1,1,1,1,1,1,1,1,1,1,1,1,1,1,1,0,0,0,0,0,0,0,0,1,1,0,1,1,1,1,1,0,1,1,0,0,1,1,1,0,1,1,0,1,1,1,1,1,1,1,1,0,0,0,0,0,1,1]",1,,,,,,stimuli/white_butterfly.png,stimuli/grey_butterfly.png,2,stimuli/blue_flower.png,stimuli/yellow_flower.png,stimuli/green_flower.png,stimuli/red_flower.png,left,stimuli/objects/giraffe.jpg,1,4,stimuli/grey_butterfly.png,0,3,2020-12-18_10h14.40.219,premce3DEU_ses-02_part-01_label-phase1,2020.1.2,MacIntel,60,,,,,left,1,1.186,0,7,7,7,1,,,,,,,,
,,,,,1,"[0,0,1,1,0,0,1,1,1,1,1,1,1,1,1,1,0,1,1,1,1,1,1,1,1,1,1,1,1,1,1,0,1,1,1,0,1,1,1,1,1,1,1,1,1,1,1,1,1,1,1,0,0,0,0,0,0,0,0,1,1,0,1,1,1,1,1,0,1,1,0,0,1,1,1,0,1,1,0,1,1,1,1,1,1,1,1,0,0,0,0,0,1,1,1]",1,,,,,,stimuli/white_butterfly.png,stimuli/grey_butterfly.png,2,stimuli/red_flower.png,stimuli/green_flower.png,stimuli/blue_flower.png,stimuli/yellow_flower.png,down,stimuli/objects/toyanimal05.jpg,1,4,stimuli/grey_butterfly.png,0,3,2020-12-18_10h14.40.219,premce3DEU_ses-02_part-01_label-phase1,2020.1.2,MacIntel,60,,,,,down,1,0.588,0,8,8,8,1,,,,,,,,
,,,,,0,"[0,0,1,1,0,0,1,1,1,1,1,1,1,1,1,1,0,1,1,1,1,1,1,1,1,1,1,1,1,1,1,0,1,1,1,0,1,1,1,1,1,1,1,1,1,1,1,1,1,1,1,0,0,0,0,0,0,0,0,1,1,0,1,1,1,1,1,0,1,1,0,0,1,1,1,0,1,1,0,1,1,1,1,1,1,1,1,0,0,0,0,0,1,1,1,1]",0,,,,,,stimuli/grey_butterfly.png,stimuli/white_butterfly.png,2,stimuli/blue_flower.png,stimuli/red_flower.png,stimuli/green_flower.png,stimuli/yellow_flower.png,left,stimuli/objects/table01.jpg,0,4,stimuli/white_butterfly.png,0,3,2020-12-18_10h14.40.219,premce3DEU_ses-02_part-01_label-phase1,2020.1.2,MacIntel,60,,,,,,0,,0,9,9,9,1,,,,,,,,
,,,,,0,"[0,0,1,1,0,0,1,1,1,1,1,1,1,1,1,1,0,1,1,1,1,1,1,1,1,1,1,1,1,1,1,0,1,1,1,0,1,1,1,1,1,1,1,1,1,1,1,1,1,1,1,0,0,0,0,0,0,0,0,1,1,0,1,1,1,1,1,0,1,1,0,0,1,1,1,0,1,1,0,1,1,1,1,1,1,1,1,0,0,0,0,0,1,1,1,1]",0,,,,,,stimuli/grey_butterfly.png,stimuli/white_butterfly.png,1,stimuli/yellow_flower.png,stimuli/green_flower.png,stimuli/red_flower.png,stimuli/blue_flower.png,left,stimuli/objects/jellybean.jpg,0,4,stimuli/grey_butterfly.png,0,3,2020-12-18_10h14.40.219,premce3DEU_ses-02_part-01_label-phase1,2020.1.2,MacIntel,60,,,,,right,0,1.949,0,10,10,10,1,,,,,,,,
,,,,,1,"[0,0,1,1,0,0,1,1,1,1,1,1,1,1,1,1,0,1,1,1,1,1,1,1,1,1,1,1,1,1,1,0,1,1,1,0,1,1,1,1,1,1,1,1,1,1,1,1,1,1,1,0,0,0,0,0,0,0,0,1,1,0,1,1,1,1,1,0,1,1,0,0,1,1,1,0,1,1,0,1,1,1,1,1,1,1,1,0,0,0,0,0,1,1,1,1]",1,,,,,,stimuli/white_butterfly.png,stimuli/grey_butterfly.png,1,stimuli/green_flower.png,stimuli/yellow_flower.png,stimuli/red_flower.png,stimuli/blue_flower.png,up,stimuli/objects/hulahoop.jpg,1,4,stimuli/white_butterfly.png,0,3,2020-12-18_10h14.40.219,premce3DEU_ses-02_part-01_label-phase1,2020.1.2,MacIntel,60,,,,,up,1,1.796,0,11,11,11,1,,,,,,,,
,,,,,0,"[0,0,1,1,0,0,1,1,1,1,1,1,1,1,1,1,0,1,1,1,1,1,1,1,1,1,1,1,1,1,1,0,1,1,1,0,1,1,1,1,1,1,1,1,1,1,1,1,1,1,1,0,0,0,0,0,0,0,0,1,1,0,1,1,1,1,1,0,1,1,0,0,1,1,1,0,1,1,0,1,1,1,1,1,1,1,1,0,0,0,0,0,1,1,1,1,1]",0,,,,,,stimuli/grey_butterfly.png,stimuli/white_butterfly.png,1,stimuli/blue_flower.png,stimuli/red_flower.png,stimuli/yellow_flower.png,stimuli/green_flower.png,left,stimuli/objects/treadmill.jpg,1,4,stimuli/grey_butterfly.png,0,3,2020-12-18_10h14.40.219,premce3DEU_ses-02_part-01_label-phase1,2020.1.2,MacIntel,60,,,,,right,0,1.875,0,12,12,12,1,,,,,,,,
,,,,,1,"[0,0,1,1,0,0,1,1,1,1,1,1,1,1,1,1,0,1,1,1,1,1,1,1,1,1,1,1,1,1,1,0,1,1,1,0,1,1,1,1,1,1,1,1,1,1,1,1,1,1,1,0,0,0,0,0,0,0,0,1,1,0,1,1,1,1,1,0,1,1,0,0,1,1,1,0,1,1,0,1,1,1,1,1,1,1,1,0,0,0,0,0,1,1,1,1,1,0]",1,,,,,,stimuli/grey_butterfly.png,stimuli/white_butterfly.png,2,stimuli/red_flower.png,stimuli/green_flower.png,stimuli/blue_flower.png,stimuli/yellow_flower.png,right,stimuli/objects/volleyball.jpg,1,4,stimuli/white_butterfly.png,0,3,2020-12-18_10h14.40.219,premce3DEU_ses-02_part-01_label-phase1,2020.1.2,MacIntel,60,,,,,right,1,1.404,0,13,13,13,1,,,,,,,,
,,,,,1,"[0,0,1,1,0,0,1,1,1,1,1,1,1,1,1,1,0,1,1,1,1,1,1,1,1,1,1,1,1,1,1,0,1,1,1,0,1,1,1,1,1,1,1,1,1,1,1,1,1,1,1,0,0,0,0,0,0,0,0,1,1,0,1,1,1,1,1,0,1,1,0,0,1,1,1,0,1,1,0,1,1,1,1,1,1,1,1,0,0,0,0,0,1,1,1,1,1,0,1]",1,,,,,,stimuli/white_butterfly.png,stimuli/grey_butterfly.png,2,stimuli/blue_flower.png,stimuli/green_flower.png,stimuli/red_flower.png,stimuli/yellow_flower.png,left,stimuli/objects/whiteout.jpg,1,4,stimuli/grey_butterfly.png,0,3,2020-12-18_10h14.40.219,premce3DEU_ses-02_part-01_label-phase1,2020.1.2,MacIntel,60,,,,,left,1,0.487,0,14,14,14,1,,,,,,,,
,,,,,1,"[0,0,1,1,0,0,1,1,1,1,1,1,1,1,1,1,0,1,1,1,1,1,1,1,1,1,1,1,1,1,1,0,1,1,1,0,1,1,1,1,1,1,1,1,1,1,1,1,1,1,1,0,0,0,0,0,0,0,0,1,1,0,1,1,1,1,1,0,1,1,0,0,1,1,1,0,1,1,0,1,1,1,1,1,1,1,1,0,0,0,0,0,1,1,1,1,1,0,1,1]",1,,,,,,stimuli/white_butterfly.png,stimuli/grey_butterfly.png,2,stimuli/yellow_flower.png,stimuli/blue_flower.png,stimuli/red_flower.png,stimuli/green_flower.png,up,stimuli/objects/butterfly2.jpg,1,4,stimuli/grey_butterfly.png,0,3,2020-12-18_10h14.40.219,premce3DEU_ses-02_part-01_label-phase1,2020.1.2,MacIntel,60,,,,,up,1,0.832,0,15,15,15,1,,,,,,,,
,,,,,0,"[0,0,1,1,0,0,1,1,1,1,1,1,1,1,1,1,0,1,1,1,1,1,1,1,1,1,1,1,1,1,1,0,1,1,1,0,1,1,1,1,1,1,1,1,1,1,1,1,1,1,1,0,0,0,0,0,0,0,0,1,1,0,1,1,1,1,1,0,1,1,0,0,1,1,1,0,1,1,0,1,1,1,1,1,1,1,1,0,0,0,0,0,1,1,1,1,1,0,1,1,1]",1,,,,,,stimuli/grey_butterfly.png,stimuli/white_butterfly.png,1,stimuli/blue_flower.png,stimuli/yellow_flower.png,stimuli/red_flower.png,stimuli/green_flower.png,down,stimuli/objects/eyepatch.jpg,0,4,stimuli/grey_butterfly.png,0,3,2020-12-18_10h14.40.219,premce3DEU_ses-02_part-01_label-phase1,2020.1.2,MacIntel,60,,,,,left,0,1.01,0,16,16,16,1,,,,,,,,
,,,,,0,"[0,0,1,1,0,0,1,1,1,1,1,1,1,1,1,1,0,1,1,1,1,1,1,1,1,1,1,1,1,1,1,0,1,1,1,0,1,1,1,1,1,1,1,1,1,1,1,1,1,1,1,0,0,0,0,0,0,0,0,1,1,0,1,1,1,1,1,0,1,1,0,0,1,1,1,0,1,1,0,1,1,1,1,1,1,1,1,0,0,0,0,0,1,1,1,1,1,0,1,1,1]",1,,,,,,stimuli/grey_butterfly.png,stimuli/white_butterfly.png,2,stimuli/yellow_flower.png,stimuli/blue_flower.png,stimuli/green_flower.png,stimuli/red_flower.png,right,stimuli/objects/sausage.jpg,0,4,stimuli/white_butterfly.png,0,3,2020-12-18_10h14.40.219,premce3DEU_ses-02_part-01_label-phase1,2020.1.2,MacIntel,60,,,,,down,0,1.601,0,17,17,17,1,,,,,,,,
,,,,,1,"[0,0,1,1,0,0,1,1,1,1,1,1,1,1,1,1,0,1,1,1,1,1,1,1,1,1,1,1,1,1,1,0,1,1,1,0,1,1,1,1,1,1,1,1,1,1,1,1,1,1,1,0,0,0,0,0,0,0,0,1,1,0,1,1,1,1,1,0,1,1,0,0,1,1,1,0,1,1,0,1,1,1,1,1,1,1,1,0,0,0,0,0,1,1,1,1,1,0,1,1,1]",1,,,,,,stimuli/white_butterfly.png,stimuli/grey_butterfly.png,2,stimuli/yellow_flower.png,stimuli/green_flower.png,stimuli/red_flower.png,stimuli/blue_flower.png,right,stimuli/objects/sandcastle.jpg,1,4,stimuli/grey_butterfly.png,0,3,2020-12-18_10h14.40.219,premce3DEU_ses-02_part-01_label-phase1,2020.1.2,MacIntel,60,,,,,right,1,1.245,0,18,18,18,1,,,,,,,,
,,,,,0,"[0,0,1,1,0,0,1,1,1,1,1,1,1,1,1,1,0,1,1,1,1,1,1,1,1,1,1,1,1,1,1,0,1,1,1,0,1,1,1,1,1,1,1,1,1,1,1,1,1,1,1,0,0,0,0,0,0,0,0,1,1,0,1,1,1,1,1,0,1,1,0,0,1,1,1,0,1,1,0,1,1,1,1,1,1,1,1,0,0,0,0,0,1,1,1,1,1,0,1,1,1,1]",0,,,,,,stimuli/white_butterfly.png,stimuli/grey_butterfly.png,1,stimuli/green_flower.png,stimuli/red_flower.png,stimuli/blue_flower.png,stimuli/yellow_flower.png,right,stimuli/objects/ironingboard01.jpg,1,4,stimuli/white_butterfly.png,0,3,2020-12-18_10h14.40.219,premce3DEU_ses-02_part-01_label-phase1,2020.1.2,MacIntel,60,,,,,left,0,1.186,0,19,19,19,1,,,,,,,,
,,,,,0,"[0,0,1,1,0,0,1,1,1,1,1,1,1,1,1,1,0,1,1,1,1,1,1,1,1,1,1,1,1,1,1,0,1,1,1,0,1,1,1,1,1,1,1,1,1,1,1,1,1,1,1,0,0,0,0,0,0,0,0,1,1,0,1,1,1,1,1,0,1,1,0,0,1,1,1,0,1,1,0,1,1,1,1,1,1,1,1,0,0,0,0,0,1,1,1,1,1,0,1,1,1,1,0]",0,,,,,,stimuli/white_butterfly.png,stimuli/grey_butterfly.png,2,stimuli/blue_flower.png,stimuli/green_flower.png,stimuli/yellow_flower.png,stimuli/red_flower.png,up,stimuli/objects/showerhead01.jpg,0,4,stimuli/grey_butterfly.png,0,3,2020-12-18_10h14.40.219,premce3DEU_ses-02_part-01_label-phase1,2020.1.2,MacIntel,60,,,,,left,0,0.672,0,20,20,20,1,,,,,,,,
,,,,,1,"[0,0,1,1,0,0,1,1,1,1,1,1,1,1,1,1,0,1,1,1,1,1,1,1,1,1,1,1,1,1,1,0,1,1,1,0,1,1,1,1,1,1,1,1,1,1,1,1,1,1,1,0,0,0,0,0,0,0,0,1,1,0,1,1,1,1,1,0,1,1,0,0,1,1,1,0,1,1,0,1,1,1,1,1,1,1,1,0,0,0,0,0,1,1,1,1,1,0,1,1,1,1,0]",1,,,,,,stimuli/white_butterfly.png,stimuli/grey_butterfly.png,2,stimuli/yellow_flower.png,stimuli/red_flower.png,stimuli/green_flower.png,stimuli/blue_flower.png,right,stimuli/objects/cookingpot.jpg,1,4,stimuli/grey_butterfly.png,1,3,2020-12-18_10h14.40.219,premce3DEU_ses-02_part-01_label-phase1,2020.1.2,MacIntel,60,,,,,right,1,1.569,0,21,21,21,1,,,,,,,,
,,,,,1,"[0,0,1,1,0,0,1,1,1,1,1,1,1,1,1,1,0,1,1,1,1,1,1,1,1,1,1,1,1,1,1,0,1,1,1,0,1,1,1,1,1,1,1,1,1,1,1,1,1,1,1,0,0,0,0,0,0,0,0,1,1,0,1,1,1,1,1,0,1,1,0,0,1,1,1,0,1,1,0,1,1,1,1,1,1,1,1,0,0,0,0,0,1,1,1,1,1,0,1,1,1,1,0,1]",1,,,,,,stimuli/grey_butterfly.png,stimuli/white_butterfly.png,1,stimuli/red_flower.png,stimuli/blue_flower.png,stimuli/green_flower.png,stimuli/yellow_flower.png,up,stimuli/objects/snowglobe.jpg,1,4,stimuli/grey_butterfly.png,1,3,2020-12-18_10h14.40.219,premce3DEU_ses-02_part-01_label-phase1,2020.1.2,MacIntel,60,,,,,up,1,0.598,0,22,22,22,1,,,,,,,,
,,,,,1,"[0,0,1,1,0,0,1,1,1,1,1,1,1,1,1,1,0,1,1,1,1,1,1,1,1,1,1,1,1,1,1,0,1,1,1,0,1,1,1,1,1,1,1,1,1,1,1,1,1,1,1,0,0,0,0,0,0,0,0,1,1,0,1,1,1,1,1,0,1,1,0,0,1,1,1,0,1,1,0,1,1,1,1,1,1,1,1,0,0,0,0,0,1,1,1,1,1,0,1,1,1,1,0,1,1]",1,,,,,,stimuli/white_butterfly.png,stimuli/grey_butterfly.png,1,stimuli/red_flower.png,stimuli/green_flower.png,stimuli/blue_flower.png,stimuli/yellow_flower.png,right,stimuli/objects/jaguar.jpg,1,4,stimuli/white_butterfly.png,1,3,2020-12-18_10h14.40.219,premce3DEU_ses-02_part-01_label-phase1,2020.1.2,MacIntel,60,,,,,right,1,1.571,0,23,23,23,1,,,,,,,,
,,,,,1,"[0,0,1,1,0,0,1,1,1,1,1,1,1,1,1,1,0,1,1,1,1,1,1,1,1,1,1,1,1,1,1,0,1,1,1,0,1,1,1,1,1,1,1,1,1,1,1,1,1,1,1,0,0,0,0,0,0,0,0,1,1,0,1,1,1,1,1,0,1,1,0,0,1,1,1,0,1,1,0,1,1,1,1,1,1,1,1,0,0,0,0,0,1,1,1,1,1,0,1,1,1,1,0,1,1,1]",1,,,,,,stimuli/white_butterfly.png,stimuli/grey_butterfly.png,2,stimuli/blue_flower.png,stimuli/red_flower.png,stimuli/green_flower.png,stimuli/yellow_flower.png,left,stimuli/objects/escalator.jpg,1,4,stimuli/grey_butterfly.png,1,3,2020-12-18_10h14.40.219,premce3DEU_ses-02_part-01_label-phase1,2020.1.2,MacIntel,60,,,,,left,1,0.494,0,24,24,24,1,,,,,,,,
,,,,,1,"[0,0,1,1,0,0,1,1,1,1,1,1,1,1,1,1,0,1,1,1,1,1,1,1,1,1,1,1,1,1,1,0,1,1,1,0,1,1,1,1,1,1,1,1,1,1,1,1,1,1,1,0,0,0,0,0,0,0,0,1,1,0,1,1,1,1,1,0,1,1,0,0,1,1,1,0,1,1,0,1,1,1,1,1,1,1,1,0,0,0,0,0,1,1,1,1,1,0,1,1,1,1,0,1,1,1,1]",1,,,,,,stimuli/grey_butterfly.png,stimuli/white_butterfly.png,1,stimuli/yellow_flower.png,stimuli/red_flower.png,stimuli/green_flower.png,stimuli/blue_flower.png,right,stimuli/objects/surfboard.jpg,1,4,stimuli/grey_butterfly.png,1,3,2020-12-18_10h14.40.219,premce3DEU_ses-02_part-01_label-phase1,2020.1.2,MacIntel,60,,,,,right,1,0.581,0,25,25,25,1,,,,,,,,
,,,,,1,"[0,0,1,1,0,0,1,1,1,1,1,1,1,1,1,1,0,1,1,1,1,1,1,1,1,1,1,1,1,1,1,0,1,1,1,0,1,1,1,1,1,1,1,1,1,1,1,1,1,1,1,0,0,0,0,0,0,0,0,1,1,0,1,1,1,1,1,0,1,1,0,0,1,1,1,0,1,1,0,1,1,1,1,1,1,1,1,0,0,0,0,0,1,1,1,1,1,0,1,1,1,1,0,1,1,1,1,1]",1,,,,,,stimuli/grey_butterfly.png,stimuli/white_butterfly.png,1,stimuli/red_flower.png,stimuli/green_flower.png,stimuli/blue_flower.png,stimuli/yellow_flower.png,down,stimuli/objects/winniethepooh.jpg,1,4,stimuli/grey_butterfly.png,1,3,2020-12-18_10h14.40.219,premce3DEU_ses-02_part-01_label-phase1,2020.1.2,MacIntel,60,,,,,down,1,0.735,0,26,26,26,1,,,,,,,,
,,,,,0,"[0,0,1,1,0,0,1,1,1,1,1,1,1,1,1,1,0,1,1,1,1,1,1,1,1,1,1,1,1,1,1,0,1,1,1,0,1,1,1,1,1,1,1,1,1,1,1,1,1,1,1,0,0,0,0,0,0,0,0,1,1,0,1,1,1,1,1,0,1,1,0,0,1,1,1,0,1,1,0,1,1,1,1,1,1,1,1,0,0,0,0,0,1,1,1,1,1,0,1,1,1,1,0,1,1,1,1,1,1]",0,,,,,,stimuli/white_butterfly.png,stimuli/grey_butterfly.png,1,stimuli/red_flower.png,stimuli/yellow_flower.png,stimuli/blue_flower.png,stimuli/green_flower.png,up,stimuli/objects/lantern03.jpg,1,4,stimuli/white_butterfly.png,1,3,2020-12-18_10h14.40.219,premce3DEU_ses-02_part-01_label-phase1,2020.1.2,MacIntel,60,,,,,right,0,1.736,0,27,27,27,1,,,,,,,,
,,,,,1,"[0,0,1,1,0,0,1,1,1,1,1,1,1,1,1,1,0,1,1,1,1,1,1,1,1,1,1,1,1,1,1,0,1,1,1,0,1,1,1,1,1,1,1,1,1,1,1,1,1,1,1,0,0,0,0,0,0,0,0,1,1,0,1,1,1,1,1,0,1,1,0,0,1,1,1,0,1,1,0,1,1,1,1,1,1,1,1,0,0,0,0,0,1,1,1,1,1,0,1,1,1,1,0,1,1,1,1,1,1,0]",1,,,,,,stimuli/grey_butterfly.png,stimuli/white_butterfly.png,2,stimuli/green_flower.png,stimuli/yellow_flower.png,stimuli/red_flower.png,stimuli/blue_flower.png,up,stimuli/objects/polarbear.jpg,1,4,stimuli/white_butterfly.png,1,3,2020-12-18_10h14.40.219,premce3DEU_ses-02_part-01_label-phase1,2020.1.2,MacIntel,60,,,,,up,1,0.499,0,28,28,28,1,,,,,,,,
,,,,,1,"[0,0,1,1,0,0,1,1,1,1,1,1,1,1,1,1,0,1,1,1,1,1,1,1,1,1,1,1,1,1,1,0,1,1,1,0,1,1,1,1,1,1,1,1,1,1,1,1,1,1,1,0,0,0,0,0,0,0,0,1,1,0,1,1,1,1,1,0,1,1,0,0,1,1,1,0,1,1,0,1,1,1,1,1,1,1,1,0,0,0,0,0,1,1,1,1,1,0,1,1,1,1,0,1,1,1,1,1,1,0,1]",1,,,,,,stimuli/white_butterfly.png,stimuli/grey_butterfly.png,1,stimuli/yellow_flower.png,stimuli/green_flower.png,stimuli/red_flower.png,stimuli/blue_flower.png,left,stimuli/objects/microwave.jpg,1,4,stimuli/white_butterfly.png,1,3,2020-12-18_10h14.40.219,premce3DEU_ses-02_part-01_label-phase1,2020.1.2,MacIntel,60,,,,,left,1,2.04,0,29,29,29,1,,,,,,,,
,,,,,1,"[0,0,1,1,0,0,1,1,1,1,1,1,1,1,1,1,0,1,1,1,1,1,1,1,1,1,1,1,1,1,1,0,1,1,1,0,1,1,1,1,1,1,1,1,1,1,1,1,1,1,1,0,0,0,0,0,0,0,0,1,1,0,1,1,1,1,1,0,1,1,0,0,1,1,1,0,1,1,0,1,1,1,1,1,1,1,1,0,0,0,0,0,1,1,1,1,1,0,1,1,1,1,0,1,1,1,1,1,1,0,1,1]",1,,,,,,stimuli/white_butterfly.png,stimuli/grey_butterfly.png,1,stimuli/blue_flower.png,stimuli/green_flower.png,stimuli/red_flower.png,stimuli/yellow_flower.png,right,stimuli/objects/dalmatian.jpg,1,4,stimuli/white_butterfly.png,1,3,2020-12-18_10h14.40.219,premce3DEU_ses-02_part-01_label-phase1,2020.1.2,MacIntel,60,,,,,right,1,0.432,0,30,30,30,1,,,,,,,,
,,,,,0,"[0,0,1,1,0,0,1,1,1,1,1,1,1,1,1,1,0,1,1,1,1,1,1,1,1,1,1,1,1,1,1,0,1,1,1,0,1,1,1,1,1,1,1,1,1,1,1,1,1,1,1,0,0,0,0,0,0,0,0,1,1,0,1,1,1,1,1,0,1,1,0,0,1,1,1,0,1,1,0,1,1,1,1,1,1,1,1,0,0,0,0,0,1,1,1,1,1,0,1,1,1,1,0,1,1,1,1,1,1,0,1,1,1]",1,,,,,,stimuli/white_butterfly.png,stimuli/grey_butterfly.png,1,stimuli/green_flower.png,stimuli/red_flower.png,stimuli/yellow_flower.png,stimuli/blue_flower.png,left,stimuli/objects/fishingrod.jpg,0,4,stimuli/white_butterfly.png,1,3,2020-12-18_10h14.40.219,premce3DEU_ses-02_part-01_label-phase1,2020.1.2,MacIntel,60,,,,,down,0,1.393,0,31,31,31,1,,,,,,,,
,,,,,1,"[0,0,1,1,0,0,1,1,1,1,1,1,1,1,1,1,0,1,1,1,1,1,1,1,1,1,1,1,1,1,1,0,1,1,1,0,1,1,1,1,1,1,1,1,1,1,1,1,1,1,1,0,0,0,0,0,0,0,0,1,1,0,1,1,1,1,1,0,1,1,0,0,1,1,1,0,1,1,0,1,1,1,1,1,1,1,1,0,0,0,0,0,1,1,1,1,1,0,1,1,1,1,0,1,1,1,1,1,1,0,1,1,1]",1,,,,,,stimuli/grey_butterfly.png,stimuli/white_butterfly.png,2,stimuli/blue_flower.png,stimuli/green_flower.png,stimuli/yellow_flower.png,stimuli/red_flower.png,down,stimuli/objects/trafficlight.jpg,1,4,stimuli/white_butterfly.png,1,3,2020-12-18_10h14.40.219,premce3DEU_ses-02_part-01_label-phase1,2020.1.2,MacIntel,60,,,,,down,1,0.702,0,32,32,32,1,,,,,,,,
,,,,,1,"[0,0,1,1,0,0,1,1,1,1,1,1,1,1,1,1,0,1,1,1,1,1,1,1,1,1,1,1,1,1,1,0,1,1,1,0,1,1,1,1,1,1,1,1,1,1,1,1,1,1,1,0,0,0,0,0,0,0,0,1,1,0,1,1,1,1,1,0,1,1,0,0,1,1,1,0,1,1,0,1,1,1,1,1,1,1,1,0,0,0,0,0,1,1,1,1,1,0,1,1,1,1,0,1,1,1,1,1,1,0,1,1,1,1]",1,,,,,,stimuli/grey_butterfly.png,stimuli/white_butterfly.png,2,stimuli/yellow_flower.png,stimuli/green_flower.png,stimuli/blue_flower.png,stimuli/red_flower.png,left,stimuli/objects/birdfeeder.jpg,1,4,stimuli/white_butterfly.png,1,3,2020-12-18_10h14.40.219,premce3DEU_ses-02_part-01_label-phase1,2020.1.2,MacIntel,60,,,,,left,1,0.472,0,33,33,33,1,,,,,,,,
,,,,,1,"[0,0,1,1,0,0,1,1,1,1,1,1,1,1,1,1,0,1,1,1,1,1,1,1,1,1,1,1,1,1,1,0,1,1,1,0,1,1,1,1,1,1,1,1,1,1,1,1,1,1,1,0,0,0,0,0,0,0,0,1,1,0,1,1,1,1,1,0,1,1,0,0,1,1,1,0,1,1,0,1,1,1,1,1,1,1,1,0,0,0,0,0,1,1,1,1,1,0,1,1,1,1,0,1,1,1,1,1,1,0,1,1,1,1,1]",1,,,,,,stimuli/white_butterfly.png,stimuli/grey_butterfly.png,2,stimuli/green_flower.png,stimuli/blue_flower.png,stimuli/yellow_flower.png,stimuli/red_flower.png,up,stimuli/objects/golfball.jpg,1,4,stimuli/grey_butterfly.png,1,3,2020-12-18_10h14.40.219,premce3DEU_ses-02_part-01_label-phase1,2020.1.2,MacIntel,60,,,,,up,1,1.547,0,34,34,34,1,,,,,,,,
,,,,,1,"[0,0,1,1,0,0,1,1,1,1,1,1,1,1,1,1,0,1,1,1,1,1,1,1,1,1,1,1,1,1,1,0,1,1,1,0,1,1,1,1,1,1,1,1,1,1,1,1,1,1,1,0,0,0,0,0,0,0,0,1,1,0,1,1,1,1,1,0,1,1,0,0,1,1,1,0,1,1,0,1,1,1,1,1,1,1,1,0,0,0,0,0,1,1,1,1,1,0,1,1,1,1,0,1,1,1,1,1,1,0,1,1,1,1,1,1]",1,,,,,,stimuli/grey_butterfly.png,stimuli/white_butterfly.png,2,stimuli/yellow_flower.png,stimuli/red_flower.png,stimuli/green_flower.png,stimuli/blue_flower.png,left,stimuli/objects/butterfly2.jpg,1,4,stimuli/white_butterfly.png,1,3,2020-12-18_10h14.40.219,premce3DEU_ses-02_part-01_label-phase1,2020.1.2,MacIntel,60,,,,,left,1,0.855,0,35,35,35,1,,,,,,,,
,,,,,1,"[0,0,1,1,0,0,1,1,1,1,1,1,1,1,1,1,0,1,1,1,1,1,1,1,1,1,1,1,1,1,1,0,1,1,1,0,1,1,1,1,1,1,1,1,1,1,1,1,1,1,1,0,0,0,0,0,0,0,0,1,1,0,1,1,1,1,1,0,1,1,0,0,1,1,1,0,1,1,0,1,1,1,1,1,1,1,1,0,0,0,0,0,1,1,1,1,1,0,1,1,1,1,0,1,1,1,1,1,1,0,1,1,1,1,1,1,1]",1,,,,,,stimuli/grey_butterfly.png,stimuli/white_butterfly.png,2,stimuli/yellow_flower.png,stimuli/blue_flower.png,stimuli/red_flower.png,stimuli/green_flower.png,left,stimuli/objects/handbrush02.jpg,1,4,stimuli/white_butterfly.png,1,3,2020-12-18_10h14.40.219,premce3DEU_ses-02_part-01_label-phase1,2020.1.2,MacIntel,60,,,,,left,1,0.53,0,36,36,36,1,,,,,,,,
,,,,,1,"[0,0,1,1,0,0,1,1,1,1,1,1,1,1,1,1,0,1,1,1,1,1,1,1,1,1,1,1,1,1,1,0,1,1,1,0,1,1,1,1,1,1,1,1,1,1,1,1,1,1,1,0,0,0,0,0,0,0,0,1,1,0,1,1,1,1,1,0,1,1,0,0,1,1,1,0,1,1,0,1,1,1,1,1,1,1,1,0,0,0,0,0,1,1,1,1,1,0,1,1,1,1,0,1,1,1,1,1,1,0,1,1,1,1,1,1,1,1]",1,,,,,,stimuli/white_butterfly.png,stimuli/grey_butterfly.png,2,stimuli/red_flower.png,stimuli/yellow_flower.png,stimuli/green_flower.png,stimuli/blue_flower.png,right,stimuli/objects/dogsled.jpg,1,4,stimuli/grey_butterfly.png,1,3,2020-12-18_10h14.40.219,premce3DEU_ses-02_part-01_label-phase1,2020.1.2,MacIntel,60,,,,,right,1,1.184,0,37,37,37,1,,,,,,,,
,,,,,0,"[0,0,1,1,0,0,1,1,1,1,1,1,1,1,1,1,0,1,1,1,1,1,1,1,1,1,1,1,1,1,1,0,1,1,1,0,1,1,1,1,1,1,1,1,1,1,1,1,1,1,1,0,0,0,0,0,0,0,0,1,1,0,1,1,1,1,1,0,1,1,0,0,1,1,1,0,1,1,0,1,1,1,1,1,1,1,1,0,0,0,0,0,1,1,1,1,1,0,1,1,1,1,0,1,1,1,1,1,1,0,1,1,1,1,1,1,1,1,1]",0,,,,,,stimuli/grey_butterfly.png,stimuli/white_butterfly.png,2,stimuli/blue_flower.png,stimuli/green_flower.png,stimuli/red_flower.png,stimuli/yellow_flower.png,right,stimuli/objects/seaturtle.jpg,1,4,stimuli/white_butterfly.png,1,3,2020-12-18_10h14.40.219,premce3DEU_ses-02_part-01_label-phase1,2020.1.2,MacIntel,60,,,,,left,0,1.677,0,38,38,38,1,,,,,,,,
,,,,,1,"[0,0,1,1,0,0,1,1,1,1,1,1,1,1,1,1,0,1,1,1,1,1,1,1,1,1,1,1,1,1,1,0,1,1,1,0,1,1,1,1,1,1,1,1,1,1,1,1,1,1,1,0,0,0,0,0,0,0,0,1,1,0,1,1,1,1,1,0,1,1,0,0,1,1,1,0,1,1,0,1,1,1,1,1,1,1,1,0,0,0,0,0,1,1,1,1,1,0,1,1,1,1,0,1,1,1,1,1,1,0,1,1,1,1,1,1,1,1,1,0]",1,,,,,,stimuli/white_butterfly.png,stimuli/grey_butterfly.png,2,stimuli/green_flower.png,stimuli/yellow_flower.png,stimuli/red_flower.png,stimuli/blue_flower.png,right,stimuli/objects/canoepaddle02.jpg,1,4,stimuli/grey_butterfly.png,1,3,2020-12-18_10h14.40.219,premce3DEU_ses-02_part-01_label-phase1,2020.1.2,MacIntel,60,,,,,right,1,0.805,0,39,39,39,1,,,,,,,,
,,,,,1,"[0,0,1,1,0,0,1,1,1,1,1,1,1,1,1,1,0,1,1,1,1,1,1,1,1,1,1,1,1,1,1,0,1,1,1,0,1,1,1,1,1,1,1,1,1,1,1,1,1,1,1,0,0,0,0,0,0,0,0,1,1,0,1,1,1,1,1,0,1,1,0,0,1,1,1,0,1,1,0,1,1,1,1,1,1,1,1,0,0,0,0,0,1,1,1,1,1,0,1,1,1,1,0,1,1,1,1,1,1,0,1,1,1,1,1,1,1,1,1,0,1]",1,,,,,,stimuli/grey_butterfly.png,stimuli/white_butterfly.png,1,stimuli/blue_flower.png,stimuli/yellow_flower.png,stimuli/green_flower.png,stimuli/red_flower.png,left,stimuli/objects/trophy01.jpg,1,4,stimuli/grey_butterfly.png,1,3,2020-12-18_10h14.40.219,premce3DEU_ses-02_part-01_label-phase1,2020.1.2,MacIntel,60,,,,,left,1,0.435,0,40,40,40,1,,,,,,,,
,,,,,1,"[0,0,1,1,0,0,1,1,1,1,1,1,1,1,1,1,0,1,1,1,1,1,1,1,1,1,1,1,1,1,1,0,1,1,1,0,1,1,1,1,1,1,1,1,1,1,1,1,1,1,1,0,0,0,0,0,0,0,0,1,1,0,1,1,1,1,1,0,1,1,0,0,1,1,1,0,1,1,0,1,1,1,1,1,1,1,1,0,0,0,0,0,1,1,1,1,1,0,1,1,1,1,0,1,1,1,1,1,1,0,1,1,1,1,1,1,1,1,1,0,1,1]",1,,,,,,stimuli/white_butterfly.png,stimuli/grey_butterfly.png,2,stimuli/red_flower.png,stimuli/yellow_flower.png,stimuli/blue_flower.png,stimuli/green_flower.png,down,stimuli/objects/donut.jpg,1,4,stimuli/grey_butterfly.png,1,3,2020-12-18_10h14.40.219,premce3DEU_ses-02_part-01_label-phase1,2020.1.2,MacIntel,60,,,,,down,1,1.054,0,41,41,41,1,,,,,,,,
,,,,,,,,,,,,,,,,,,,,,,,,,,3,2020-12-18_10h14.40.219,premce3DEU_ses-02_part-01_label-phase1,2020.1.2,MacIntel,60,,,,,,,,,,,,,0,2,2,2,1,condition_files/tasklistC4.csv,,
,,,,,0,"[0,0,1,1,0,0,1,1,1,1,1,1,1,1,1,1,0,1,1,1,1,1,1,1,1,1,1,1,1,1,1,0,1,1,1,0,1,1,1,1,1,1,1,1,1,1,1,1,1,1,1,0,0,0,0,0,0,0,0,1,1,0,1,1,1,1,1,0,1,1,0,0,1,1,1,0,1,1,0,1,1,1,1,1,1,1,1,0,0,0,0,0,1,1,1,1,1,0,1,1,1,1,0,1,1,1,1,1,1,0,1,1,1,1,1,1,1,1,1,0,1,1,1]",1,,,,,,stimuli/grey_butterfly.png,stimuli/white_butterfly.png,1,stimuli/red_flower.png,stimuli/green_flower.png,stimuli/yellow_flower.png,stimuli/blue_flower.png,down,stimuli/objects/snowman.jpg,0,5,stimuli/grey_butterfly.png,0,3,2020-12-18_10h14.40.219,premce3DEU_ses-02_part-01_label-phase1,2020.1.2,MacIntel,60,,,,,right,0,2.272,0,0,0,0,1,,,,,,,,
,,,,,0,"[0,0,1,1,0,0,1,1,1,1,1,1,1,1,1,1,0,1,1,1,1,1,1,1,1,1,1,1,1,1,1,0,1,1,1,0,1,1,1,1,1,1,1,1,1,1,1,1,1,1,1,0,0,0,0,0,0,0,0,1,1,0,1,1,1,1,1,0,1,1,0,0,1,1,1,0,1,1,0,1,1,1,1,1,1,1,1,0,0,0,0,0,1,1,1,1,1,0,1,1,1,1,0,1,1,1,1,1,1,0,1,1,1,1,1,1,1,1,1,0,1,1,1]",0,,,,,,stimuli/white_butterfly.png,stimuli/grey_butterfly.png,1,stimuli/yellow_flower.png,stimuli/red_flower.png,stimuli/blue_flower.png,stimuli/green_flower.png,up,stimuli/objects/artichoke01b.jpg,1,5,stimuli/white_butterfly.png,0,3,2020-12-18_10h14.40.219,premce3DEU_ses-02_part-01_label-phase1,2020.1.2,MacIntel,60,,,,,,0,,0,1,1,1,1,,,,,,,,
,,,,,0,"[0,0,1,1,0,0,1,1,1,1,1,1,1,1,1,1,0,1,1,1,1,1,1,1,1,1,1,1,1,1,1,0,1,1,1,0,1,1,1,1,1,1,1,1,1,1,1,1,1,1,1,0,0,0,0,0,0,0,0,1,1,0,1,1,1,1,1,0,1,1,0,0,1,1,1,0,1,1,0,1,1,1,1,1,1,1,1,0,0,0,0,0,1,1,1,1,1,0,1,1,1,1,0,1,1,1,1,1,1,0,1,1,1,1,1,1,1,1,1,0,1,1,1,0]",0,,,,,,stimuli/grey_butterfly.png,stimuli/white_butterfly.png,2,stimuli/green_flower.png,stimuli/yellow_flower.png,stimuli/red_flower.png,stimuli/blue_flower.png,down,stimuli/objects/lintroller.jpg,1,5,stimuli/white_butterfly.png,0,3,2020-12-18_10h14.40.219,premce3DEU_ses-02_part-01_label-phase1,2020.1.2,MacIntel,60,,,,,up,0,1.129,0,2,2,2,1,,,,,,,,
,,,,,1,"[0,0,1,1,0,0,1,1,1,1,1,1,1,1,1,1,0,1,1,1,1,1,1,1,1,1,1,1,1,1,1,0,1,1,1,0,1,1,1,1,1,1,1,1,1,1,1,1,1,1,1,0,0,0,0,0,0,0,0,1,1,0,1,1,1,1,1,0,1,1,0,0,1,1,1,0,1,1,0,1,1,1,1,1,1,1,1,0,0,0,0,0,1,1,1,1,1,0,1,1,1,1,0,1,1,1,1,1,1,0,1,1,1,1,1,1,1,1,1,0,1,1,1,0,0]",1,,,,,,stimuli/grey_butterfly.png,stimuli/white_butterfly.png,2,stimuli/green_flower.png,stimuli/blue_flower.png,stimuli/red_flower.png,stimuli/yellow_flower.png,down,stimuli/objects/fridge.jpg,1,5,stimuli/white_butterfly.png,0,3,2020-12-18_10h14.40.219,premce3DEU_ses-02_part-01_label-phase1,2020.1.2,MacIntel,60,,,,,down,1,0.503,0,3,3,3,1,,,,,,,,
,,,,,1,"[0,0,1,1,0,0,1,1,1,1,1,1,1,1,1,1,0,1,1,1,1,1,1,1,1,1,1,1,1,1,1,0,1,1,1,0,1,1,1,1,1,1,1,1,1,1,1,1,1,1,1,0,0,0,0,0,0,0,0,1,1,0,1,1,1,1,1,0,1,1,0,0,1,1,1,0,1,1,0,1,1,1,1,1,1,1,1,0,0,0,0,0,1,1,1,1,1,0,1,1,1,1,0,1,1,1,1,1,1,0,1,1,1,1,1,1,1,1,1,0,1,1,1,0,0,1]",1,,,,,,stimuli/white_butterfly.png,stimuli/grey_butterfly.png,1,stimuli/blue_flower.png,stimuli/green_flower.png,stimuli/yellow_flower.png,stimuli/red_flower.png,right,stimuli/objects/shower.jpg,1,5,stimuli/white_butterfly.png,0,3,2020-12-18_10h14.40.219,premce3DEU_ses-02_part-01_label-phase1,2020.1.2,MacIntel,60,,,,,right,1,0.449,0,4,4,4,1,,,,,,,,
,,,,,1,"[0,0,1,1,0,0,1,1,1,1,1,1,1,1,1,1,0,1,1,1,1,1,1,1,1,1,1,1,1,1,1,0,1,1,1,0,1,1,1,1,1,1,1,1,1,1,1,1,1,1,1,0,0,0,0,0,0,0,0,1,1,0,1,1,1,1,1,0,1,1,0,0,1,1,1,0,1,1,0,1,1,1,1,1,1,1,1,0,0,0,0,0,1,1,1,1,1,0,1,1,1,1,0,1,1,1,1,1,1,0,1,1,1,1,1,1,1,1,1,0,1,1,1,0,0,1,1]",1,,,,,,stimuli/white_butterfly.png,stimuli/grey_butterfly.png,1,stimuli/green_flower.png,stimuli/blue_flower.png,stimuli/red_flower.png,stimuli/yellow_flower.png,down,stimuli/objects/zebra.jpg,1,5,stimuli/white_butterfly.png,0,3,2020-12-18_10h14.40.219,premce3DEU_ses-02_part-01_label-phase1,2020.1.2,MacIntel,60,,,,,down,1,0.619,0,5,5,5,1,,,,,,,,
,,,,,1,"[0,0,1,1,0,0,1,1,1,1,1,1,1,1,1,1,0,1,1,1,1,1,1,1,1,1,1,1,1,1,1,0,1,1,1,0,1,1,1,1,1,1,1,1,1,1,1,1,1,1,1,0,0,0,0,0,0,0,0,1,1,0,1,1,1,1,1,0,1,1,0,0,1,1,1,0,1,1,0,1,1,1,1,1,1,1,1,0,0,0,0,0,1,1,1,1,1,0,1,1,1,1,0,1,1,1,1,1,1,0,1,1,1,1,1,1,1,1,1,0,1,1,1,0,0,1,1,1]",1,,,,,,stimuli/white_butterfly.png,stimuli/grey_butterfly.png,1,stimuli/green_flower.png,stimuli/yellow_flower.png,stimuli/blue_flower.png,stimuli/red_flower.png,right,stimuli/objects/jokercard.jpg,1,5,stimuli/white_butterfly.png,0,3,2020-12-18_10h14.40.219,premce3DEU_ses-02_part-01_label-phase1,2020.1.2,MacIntel,60,,,,,right,1,0.467,0,6,6,6,1,,,,,,,,
,,,,,0,"[0,0,1,1,0,0,1,1,1,1,1,1,1,1,1,1,0,1,1,1,1,1,1,1,1,1,1,1,1,1,1,0,1,1,1,0,1,1,1,1,1,1,1,1,1,1,1,1,1,1,1,0,0,0,0,0,0,0,0,1,1,0,1,1,1,1,1,0,1,1,0,0,1,1,1,0,1,1,0,1,1,1,1,1,1,1,1,0,0,0,0,0,1,1,1,1,1,0,1,1,1,1,0,1,1,1,1,1,1,0,1,1,1,1,1,1,1,1,1,0,1,1,1,0,0,1,1,1,1]",1,,,,,,stimuli/white_butterfly.png,stimuli/grey_butterfly.png,2,stimuli/green_flower.png,stimuli/blue_flower.png,stimuli/red_flower.png,stimuli/yellow_flower.png,down,stimuli/objects/coffeemachine.jpg,0,5,stimuli/grey_butterfly.png,0,3,2020-12-18_10h14.40.219,premce3DEU_ses-02_part-01_label-phase1,2020.1.2,MacIntel,60,,,,,up,0,1.63,0,7,7,7,1,,,,,,,,
,,,,,1,"[0,0,1,1,0,0,1,1,1,1,1,1,1,1,1,1,0,1,1,1,1,1,1,1,1,1,1,1,1,1,1,0,1,1,1,0,1,1,1,1,1,1,1,1,1,1,1,1,1,1,1,0,0,0,0,0,0,0,0,1,1,0,1,1,1,1,1,0,1,1,0,0,1,1,1,0,1,1,0,1,1,1,1,1,1,1,1,0,0,0,0,0,1,1,1,1,1,0,1,1,1,1,0,1,1,1,1,1,1,0,1,1,1,1,1,1,1,1,1,0,1,1,1,0,0,1,1,1,1]",1,,,,,,stimuli/grey_butterfly.png,stimuli/white_butterfly.png,2,stimuli/blue_flower.png,stimuli/green_flower.png,stimuli/red_flower.png,stimuli/yellow_flower.png,down,stimuli/objects/recyclingbin.jpg,1,5,stimuli/white_butterfly.png,0,3,2020-12-18_10h14.40.219,premce3DEU_ses-02_part-01_label-phase1,2020.1.2,MacIntel,60,,,,,down,1,0.843,0,8,8,8,1,,,,,,,,
,,,,,0,"[0,0,1,1,0,0,1,1,1,1,1,1,1,1,1,1,0,1,1,1,1,1,1,1,1,1,1,1,1,1,1,0,1,1,1,0,1,1,1,1,1,1,1,1,1,1,1,1,1,1,1,0,0,0,0,0,0,0,0,1,1,0,1,1,1,1,1,0,1,1,0,0,1,1,1,0,1,1,0,1,1,1,1,1,1,1,1,0,0,0,0,0,1,1,1,1,1,0,1,1,1,1,0,1,1,1,1,1,1,0,1,1,1,1,1,1,1,1,1,0,1,1,1,0,0,1,1,1,1,1]",0,,,,,,stimuli/white_butterfly.png,stimuli/grey_butterfly.png,2,stimuli/green_flower.png,stimuli/yellow_flower.png,stimuli/blue_flower.png,stimuli/red_flower.png,left,stimuli/objects/aquarium.jpg,1,5,stimuli/grey_butterfly.png,0,3,2020-12-18_10h14.40.219,premce3DEU_ses-02_part-01_label-phase1,2020.1.2,MacIntel,60,,,,,down,0,1.145,0,9,9,9,1,,,,,,,,
,,,,,1,"[0,0,1,1,0,0,1,1,1,1,1,1,1,1,1,1,0,1,1,1,1,1,1,1,1,1,1,1,1,1,1,0,1,1,1,0,1,1,1,1,1,1,1,1,1,1,1,1,1,1,1,0,0,0,0,0,0,0,0,1,1,0,1,1,1,1,1,0,1,1,0,0,1,1,1,0,1,1,0,1,1,1,1,1,1,1,1,0,0,0,0,0,1,1,1,1,1,0,1,1,1,1,0,1,1,1,1,1,1,0,1,1,1,1,1,1,1,1,1,0,1,1,1,0,0,1,1,1,1,1,0]",1,,,,,,stimuli/white_butterfly.png,stimuli/grey_butterfly.png,2,stimuli/green_flower.png,stimuli/red_flower.png,stimuli/blue_flower.png,stimuli/yellow_flower.png,left,stimuli/objects/skiboot01a.jpg,1,5,stimuli/grey_butterfly.png,0,3,2020-12-18_10h14.40.219,premce3DEU_ses-02_part-01_label-phase1,2020.1.2,MacIntel,60,,,,,left,1,0.469,0,10,10,10,1,,,,,,,,
,,,,,1,"[0,0,1,1,0,0,1,1,1,1,1,1,1,1,1,1,0,1,1,1,1,1,1,1,1,1,1,1,1,1,1,0,1,1,1,0,1,1,1,1,1,1,1,1,1,1,1,1,1,1,1,0,0,0,0,0,0,0,0,1,1,0,1,1,1,1,1,0,1,1,0,0,1,1,1,0,1,1,0,1,1,1,1,1,1,1,1,0,0,0,0,0,1,1,1,1,1,0,1,1,1,1,0,1,1,1,1,1,1,0,1,1,1,1,1,1,1,1,1,0,1,1,1,0,0,1,1,1,1,1,0,1]",1,,,,,,stimuli/white_butterfly.png,stimuli/grey_butterfly.png,2,stimuli/blue_flower.png,stimuli/green_flower.png,stimuli/red_flower.png,stimuli/yellow_flower.png,up,stimuli/objects/cuttlefish.jpg,1,5,stimuli/grey_butterfly.png,0,3,2020-12-18_10h14.40.219,premce3DEU_ses-02_part-01_label-phase1,2020.1.2,MacIntel,60,,,,,up,1,0.529,0,11,11,11,1,,,,,,,,
,,,,,1,"[0,0,1,1,0,0,1,1,1,1,1,1,1,1,1,1,0,1,1,1,1,1,1,1,1,1,1,1,1,1,1,0,1,1,1,0,1,1,1,1,1,1,1,1,1,1,1,1,1,1,1,0,0,0,0,0,0,0,0,1,1,0,1,1,1,1,1,0,1,1,0,0,1,1,1,0,1,1,0,1,1,1,1,1,1,1,1,0,0,0,0,0,1,1,1,1,1,0,1,1,1,1,0,1,1,1,1,1,1,0,1,1,1,1,1,1,1,1,1,0,1,1,1,0,0,1,1,1,1,1,0,1,1]",1,,,,,,stimuli/white_butterfly.png,stimuli/grey_butterfly.png,2,stimuli/red_flower.png,stimuli/yellow_flower.png,stimuli/green_flower.png,stimuli/blue_flower.png,down,stimuli/objects/stool01.jpg,1,5,stimuli/grey_butterfly.png,0,3,2020-12-18_10h14.40.219,premce3DEU_ses-02_part-01_label-phase1,2020.1.2,MacIntel,60,,,,,down,1,0.536,0,12,12,12,1,,,,,,,,
,,,,,0,"[0,0,1,1,0,0,1,1,1,1,1,1,1,1,1,1,0,1,1,1,1,1,1,1,1,1,1,1,1,1,1,0,1,1,1,0,1,1,1,1,1,1,1,1,1,1,1,1,1,1,1,0,0,0,0,0,0,0,0,1,1,0,1,1,1,1,1,0,1,1,0,0,1,1,1,0,1,1,0,1,1,1,1,1,1,1,1,0,0,0,0,0,1,1,1,1,1,0,1,1,1,1,0,1,1,1,1,1,1,0,1,1,1,1,1,1,1,1,1,0,1,1,1,0,0,1,1,1,1,1,0,1,1,1]",0,,,,,,stimuli/grey_butterfly.png,stimuli/white_butterfly.png,2,stimuli/yellow_flower.png,stimuli/green_flower.png,stimuli/red_flower.png,stimuli/blue_flower.png,down,stimuli/objects/pumpkin.jpg,1,5,stimuli/white_butterfly.png,0,3,2020-12-18_10h14.40.219,premce3DEU_ses-02_part-01_label-phase1,2020.1.2,MacIntel,60,,,,,right,0,1.964,0,13,13,13,1,,,,,,,,
,,,,,0,"[0,0,1,1,0,0,1,1,1,1,1,1,1,1,1,1,0,1,1,1,1,1,1,1,1,1,1,1,1,1,1,0,1,1,1,0,1,1,1,1,1,1,1,1,1,1,1,1,1,1,1,0,0,0,0,0,0,0,0,1,1,0,1,1,1,1,1,0,1,1,0,0,1,1,1,0,1,1,0,1,1,1,1,1,1,1,1,0,0,0,0,0,1,1,1,1,1,0,1,1,1,1,0,1,1,1,1,1,1,0,1,1,1,1,1,1,1,1,1,0,1,1,1,0,0,1,1,1,1,1,0,1,1,1,0]",0,,,,,,stimuli/grey_butterfly.png,stimuli/white_butterfly.png,1,stimuli/blue_flower.png,stimuli/red_flower.png,stimuli/yellow_flower.png,stimuli/green_flower.png,right,stimuli/objects/mirror02.jpg,1,5,stimuli/grey_butterfly.png,0,3,2020-12-18_10h14.40.219,premce3DEU_ses-02_part-01_label-phase1,2020.1.2,MacIntel,60,,,,,,0,,0,14,14,14,1,,,,,,,,
,,,,,0,"[0,0,1,1,0,0,1,1,1,1,1,1,1,1,1,1,0,1,1,1,1,1,1,1,1,1,1,1,1,1,1,0,1,1,1,0,1,1,1,1,1,1,1,1,1,1,1,1,1,1,1,0,0,0,0,0,0,0,0,1,1,0,1,1,1,1,1,0,1,1,0,0,1,1,1,0,1,1,0,1,1,1,1,1,1,1,1,0,0,0,0,0,1,1,1,1,1,0,1,1,1,1,0,1,1,1,1,1,1,0,1,1,1,1,1,1,1,1,1,0,1,1,1,0,0,1,1,1,1,1,0,1,1,1,0,0]",0,,,,,,stimuli/grey_butterfly.png,stimuli/white_butterfly.png,1,stimuli/green_flower.png,stimuli/red_flower.png,stimuli/yellow_flower.png,stimuli/blue_flower.png,left,stimuli/objects/crab01.jpg,1,5,stimuli/grey_butterfly.png,0,3,2020-12-18_10h14.40.219,premce3DEU_ses-02_part-01_label-phase1,2020.1.2,MacIntel,60,,,,,right,0,0.979,0,15,15,15,1,,,,,,,,
,,,,,1,"[0,0,1,1,0,0,1,1,1,1,1,1,1,1,1,1,0,1,1,1,1,1,1,1,1,1,1,1,1,1,1,0,1,1,1,0,1,1,1,1,1,1,1,1,1,1,1,1,1,1,1,0,0,0,0,0,0,0,0,1,1,0,1,1,1,1,1,0,1,1,0,0,1,1,1,0,1,1,0,1,1,1,1,1,1,1,1,0,0,0,0,0,1,1,1,1,1,0,1,1,1,1,0,1,1,1,1,1,1,0,1,1,1,1,1,1,1,1,1,0,1,1,1,0,0,1,1,1,1,1,0,1,1,1,0,0,0]",1,,,,,,stimuli/grey_butterfly.png,stimuli/white_butterfly.png,1,stimuli/blue_flower.png,stimuli/green_flower.png,stimuli/red_flower.png,stimuli/yellow_flower.png,up,stimuli/objects/butterfly3.jpg,1,5,stimuli/grey_butterfly.png,0,3,2020-12-18_10h14.40.219,premce3DEU_ses-02_part-01_label-phase1,2020.1.2,MacIntel,60,,,,,up,1,0.478,0,16,16,16,1,,,,,,,,
,,,,,0,"[0,0,1,1,0,0,1,1,1,1,1,1,1,1,1,1,0,1,1,1,1,1,1,1,1,1,1,1,1,1,1,0,1,1,1,0,1,1,1,1,1,1,1,1,1,1,1,1,1,1,1,0,0,0,0,0,0,0,0,1,1,0,1,1,1,1,1,0,1,1,0,0,1,1,1,0,1,1,0,1,1,1,1,1,1,1,1,0,0,0,0,0,1,1,1,1,1,0,1,1,1,1,0,1,1,1,1,1,1,0,1,1,1,1,1,1,1,1,1,0,1,1,1,0,0,1,1,1,1,1,0,1,1,1,0,0,0,1]",0,,,,,,stimuli/white_butterfly.png,stimuli/grey_butterfly.png,1,stimuli/green_flower.png,stimuli/red_flower.png,stimuli/yellow_flower.png,stimuli/blue_flower.png,up,stimuli/objects/fishskeleton.jpg,1,5,stimuli/white_butterfly.png,0,3,2020-12-18_10h14.40.219,premce3DEU_ses-02_part-01_label-phase1,2020.1.2,MacIntel,60,,,,,left,0,0.511,0,17,17,17,1,,,,,,,,
,,,,,0,"[0,0,1,1,0,0,1,1,1,1,1,1,1,1,1,1,0,1,1,1,1,1,1,1,1,1,1,1,1,1,1,0,1,1,1,0,1,1,1,1,1,1,1,1,1,1,1,1,1,1,1,0,0,0,0,0,0,0,0,1,1,0,1,1,1,1,1,0,1,1,0,0,1,1,1,0,1,1,0,1,1,1,1,1,1,1,1,0,0,0,0,0,1,1,1,1,1,0,1,1,1,1,0,1,1,1,1,1,1,0,1,1,1,1,1,1,1,1,1,0,1,1,1,0,0,1,1,1,1,1,0,1,1,1,0,0,0,1,0]",0,,,,,,stimuli/white_butterfly.png,stimuli/grey_butterfly.png,2,stimuli/yellow_flower.png,stimuli/blue_flower.png,stimuli/red_flower.png,stimuli/green_flower.png,right,stimuli/objects/jackrabbit.jpg,1,5,stimuli/grey_butterfly.png,0,3,2020-12-18_10h14.40.219,premce3DEU_ses-02_part-01_label-phase1,2020.1.2,MacIntel,60,,,,,,0,,0,18,18,18,1,,,,,,,,
,,,,,1,"[0,0,1,1,0,0,1,1,1,1,1,1,1,1,1,1,0,1,1,1,1,1,1,1,1,1,1,1,1,1,1,0,1,1,1,0,1,1,1,1,1,1,1,1,1,1,1,1,1,1,1,0,0,0,0,0,0,0,0,1,1,0,1,1,1,1,1,0,1,1,0,0,1,1,1,0,1,1,0,1,1,1,1,1,1,1,1,0,0,0,0,0,1,1,1,1,1,0,1,1,1,1,0,1,1,1,1,1,1,0,1,1,1,1,1,1,1,1,1,0,1,1,1,0,0,1,1,1,1,1,0,1,1,1,0,0,0,1,0,0]",1,,,,,,stimuli/white_butterfly.png,stimuli/grey_butterfly.png,1,stimuli/blue_flower.png,stimuli/red_flower.png,stimuli/green_flower.png,stimuli/yellow_flower.png,up,stimuli/objects/dartboard.jpg,1,5,stimuli/white_butterfly.png,0,3,2020-12-18_10h14.40.219,premce3DEU_ses-02_part-01_label-phase1,2020.1.2,MacIntel,60,,,,,up,1,1.662,0,19,19,19,1,,,,,,,,
,,,,,1,"[0,0,1,1,0,0,1,1,1,1,1,1,1,1,1,1,0,1,1,1,1,1,1,1,1,1,1,1,1,1,1,0,1,1,1,0,1,1,1,1,1,1,1,1,1,1,1,1,1,1,1,0,0,0,0,0,0,0,0,1,1,0,1,1,1,1,1,0,1,1,0,0,1,1,1,0,1,1,0,1,1,1,1,1,1,1,1,0,0,0,0,0,1,1,1,1,1,0,1,1,1,1,0,1,1,1,1,1,1,0,1,1,1,1,1,1,1,1,1,0,1,1,1,0,0,1,1,1,1,1,0,1,1,1,0,0,0,1,0,0,1]",1,,,,,,stimuli/grey_butterfly.png,stimuli/white_butterfly.png,1,stimuli/red_flower.png,stimuli/green_flower.png,stimuli/blue_flower.png,stimuli/yellow_flower.png,up,stimuli/objects/brownsugar.jpg,1,5,stimuli/grey_butterfly.png,0,3,2020-12-18_10h14.40.219,premce3DEU_ses-02_part-01_label-phase1,2020.1.2,MacIntel,60,,,,,up,1,0.868,0,20,20,20,1,,,,,,,,
,,,,,1,"[0,0,1,1,0,0,1,1,1,1,1,1,1,1,1,1,0,1,1,1,1,1,1,1,1,1,1,1,1,1,1,0,1,1,1,0,1,1,1,1,1,1,1,1,1,1,1,1,1,1,1,0,0,0,0,0,0,0,0,1,1,0,1,1,1,1,1,0,1,1,0,0,1,1,1,0,1,1,0,1,1,1,1,1,1,1,1,0,0,0,0,0,1,1,1,1,1,0,1,1,1,1,0,1,1,1,1,1,1,0,1,1,1,1,1,1,1,1,1,0,1,1,1,0,0,1,1,1,1,1,0,1,1,1,0,0,0,1,0,0,1,1]",1,,,,,,stimuli/grey_butterfly.png,stimuli/white_butterfly.png,2,stimuli/blue_flower.png,stimuli/green_flower.png,stimuli/yellow_flower.png,stimuli/red_flower.png,right,stimuli/objects/cremebrulee.jpg,1,5,stimuli/white_butterfly.png,1,3,2020-12-18_10h14.40.219,premce3DEU_ses-02_part-01_label-phase1,2020.1.2,MacIntel,60,,,,,right,1,1.268,0,21,21,21,1,,,,,,,,
,,,,,0,"[0,0,1,1,0,0,1,1,1,1,1,1,1,1,1,1,0,1,1,1,1,1,1,1,1,1,1,1,1,1,1,0,1,1,1,0,1,1,1,1,1,1,1,1,1,1,1,1,1,1,1,0,0,0,0,0,0,0,0,1,1,0,1,1,1,1,1,0,1,1,0,0,1,1,1,0,1,1,0,1,1,1,1,1,1,1,1,0,0,0,0,0,1,1,1,1,1,0,1,1,1,1,0,1,1,1,1,1,1,0,1,1,1,1,1,1,1,1,1,0,1,1,1,0,0,1,1,1,1,1,0,1,1,1,0,0,0,1,0,0,1,1,1]",0,,,,,,stimuli/grey_butterfly.png,stimuli/white_butterfly.png,1,stimuli/red_flower.png,stimuli/blue_flower.png,stimuli/green_flower.png,stimuli/yellow_flower.png,down,stimuli/objects/doghouse.jpg,1,5,stimuli/grey_butterfly.png,1,3,2020-12-18_10h14.40.219,premce3DEU_ses-02_part-01_label-phase1,2020.1.2,MacIntel,60,,,,,left,0,0.574,0,22,22,22,1,,,,,,,,
,,,,,1,"[0,0,1,1,0,0,1,1,1,1,1,1,1,1,1,1,0,1,1,1,1,1,1,1,1,1,1,1,1,1,1,0,1,1,1,0,1,1,1,1,1,1,1,1,1,1,1,1,1,1,1,0,0,0,0,0,0,0,0,1,1,0,1,1,1,1,1,0,1,1,0,0,1,1,1,0,1,1,0,1,1,1,1,1,1,1,1,0,0,0,0,0,1,1,1,1,1,0,1,1,1,1,0,1,1,1,1,1,1,0,1,1,1,1,1,1,1,1,1,0,1,1,1,0,0,1,1,1,1,1,0,1,1,1,0,0,0,1,0,0,1,1,1,0]",1,,,,,,stimuli/grey_butterfly.png,stimuli/white_butterfly.png,2,stimuli/yellow_flower.png,stimuli/red_flower.png,stimuli/blue_flower.png,stimuli/green_flower.png,up,stimuli/objects/filingcabinet.jpg,1,5,stimuli/white_butterfly.png,1,3,2020-12-18_10h14.40.219,premce3DEU_ses-02_part-01_label-phase1,2020.1.2,MacIntel,60,,,,,up,1,0.58,0,23,23,23,1,,,,,,,,
,,,,,0,"[0,0,1,1,0,0,1,1,1,1,1,1,1,1,1,1,0,1,1,1,1,1,1,1,1,1,1,1,1,1,1,0,1,1,1,0,1,1,1,1,1,1,1,1,1,1,1,1,1,1,1,0,0,0,0,0,0,0,0,1,1,0,1,1,1,1,1,0,1,1,0,0,1,1,1,0,1,1,0,1,1,1,1,1,1,1,1,0,0,0,0,0,1,1,1,1,1,0,1,1,1,1,0,1,1,1,1,1,1,0,1,1,1,1,1,1,1,1,1,0,1,1,1,0,0,1,1,1,1,1,0,1,1,1,0,0,0,1,0,0,1,1,1,0,1]",1,,,,,,stimuli/white_butterfly.png,stimuli/grey_butterfly.png,2,stimuli/blue_flower.png,stimuli/green_flower.png,stimuli/yellow_flower.png,stimuli/red_flower.png,left,stimuli/objects/skateboard.jpg,0,5,stimuli/grey_butterfly.png,1,3,2020-12-18_10h14.40.219,premce3DEU_ses-02_part-01_label-phase1,2020.1.2,MacIntel,60,,,,,up,0,0.559,0,24,24,24,1,,,,,,,,
,,,,,1,"[0,0,1,1,0,0,1,1,1,1,1,1,1,1,1,1,0,1,1,1,1,1,1,1,1,1,1,1,1,1,1,0,1,1,1,0,1,1,1,1,1,1,1,1,1,1,1,1,1,1,1,0,0,0,0,0,0,0,0,1,1,0,1,1,1,1,1,0,1,1,0,0,1,1,1,0,1,1,0,1,1,1,1,1,1,1,1,0,0,0,0,0,1,1,1,1,1,0,1,1,1,1,0,1,1,1,1,1,1,0,1,1,1,1,1,1,1,1,1,0,1,1,1,0,0,1,1,1,1,1,0,1,1,1,0,0,0,1,0,0,1,1,1,0,1]",1,,,,,,stimuli/white_butterfly.png,stimuli/grey_butterfly.png,2,stimuli/red_flower.png,stimuli/green_flower.png,stimuli/yellow_flower.png,stimuli/blue_flower.png,up,stimuli/objects/hockeystick.jpg,1,5,stimuli/grey_butterfly.png,1,3,2020-12-18_10h14.40.219,premce3DEU_ses-02_part-01_label-phase1,2020.1.2,MacIntel,60,,,,,up,1,0.561,0,25,25,25,1,,,,,,,,
,,,,,1,"[0,0,1,1,0,0,1,1,1,1,1,1,1,1,1,1,0,1,1,1,1,1,1,1,1,1,1,1,1,1,1,0,1,1,1,0,1,1,1,1,1,1,1,1,1,1,1,1,1,1,1,0,0,0,0,0,0,0,0,1,1,0,1,1,1,1,1,0,1,1,0,0,1,1,1,0,1,1,0,1,1,1,1,1,1,1,1,0,0,0,0,0,1,1,1,1,1,0,1,1,1,1,0,1,1,1,1,1,1,0,1,1,1,1,1,1,1,1,1,0,1,1,1,0,0,1,1,1,1,1,0,1,1,1,0,0,0,1,0,0,1,1,1,0,1,1]",1,,,,,,stimuli/grey_butterfly.png,stimuli/white_butterfly.png,1,stimuli/blue_flower.png,stimuli/red_flower.png,stimuli/green_flower.png,stimuli/yellow_flower.png,down,stimuli/objects/bolt01a.jpg,1,5,stimuli/grey_butterfly.png,1,3,2020-12-18_10h14.40.219,premce3DEU_ses-02_part-01_label-phase1,2020.1.2,MacIntel,60,,,,,down,1,0.897,0,26,26,26,1,,,,,,,,
,,,,,1,"[0,0,1,1,0,0,1,1,1,1,1,1,1,1,1,1,0,1,1,1,1,1,1,1,1,1,1,1,1,1,1,0,1,1,1,0,1,1,1,1,1,1,1,1,1,1,1,1,1,1,1,0,0,0,0,0,0,0,0,1,1,0,1,1,1,1,1,0,1,1,0,0,1,1,1,0,1,1,0,1,1,1,1,1,1,1,1,0,0,0,0,0,1,1,1,1,1,0,1,1,1,1,0,1,1,1,1,1,1,0,1,1,1,1,1,1,1,1,1,0,1,1,1,0,0,1,1,1,1,1,0,1,1,1,0,0,0,1,0,0,1,1,1,0,1,1,1]",1,,,,,,stimuli/white_butterfly.png,stimuli/grey_butterfly.png,2,stimuli/blue_flower.png,stimuli/red_flower.png,stimuli/green_flower.png,stimuli/yellow_flower.png,down,stimuli/objects/ipad02.jpg,1,5,stimuli/grey_butterfly.png,1,3,2020-12-18_10h14.40.219,premce3DEU_ses-02_part-01_label-phase1,2020.1.2,MacIntel,60,,,,,down,1,0.734,0,27,27,27,1,,,,,,,,
,,,,,1,"[0,0,1,1,0,0,1,1,1,1,1,1,1,1,1,1,0,1,1,1,1,1,1,1,1,1,1,1,1,1,1,0,1,1,1,0,1,1,1,1,1,1,1,1,1,1,1,1,1,1,1,0,0,0,0,0,0,0,0,1,1,0,1,1,1,1,1,0,1,1,0,0,1,1,1,0,1,1,0,1,1,1,1,1,1,1,1,0,0,0,0,0,1,1,1,1,1,0,1,1,1,1,0,1,1,1,1,1,1,0,1,1,1,1,1,1,1,1,1,0,1,1,1,0,0,1,1,1,1,1,0,1,1,1,0,0,0,1,0,0,1,1,1,0,1,1,1,1]",1,,,,,,stimuli/grey_butterfly.png,stimuli/white_butterfly.png,1,stimuli/green_flower.png,stimuli/blue_flower.png,stimuli/red_flower.png,stimuli/yellow_flower.png,left,stimuli/objects/cannon.jpg,1,5,stimuli/grey_butterfly.png,1,3,2020-12-18_10h14.40.219,premce3DEU_ses-02_part-01_label-phase1,2020.1.2,MacIntel,60,,,,,left,1,0.447,0,28,28,28,1,,,,,,,,
,,,,,0,"[0,0,1,1,0,0,1,1,1,1,1,1,1,1,1,1,0,1,1,1,1,1,1,1,1,1,1,1,1,1,1,0,1,1,1,0,1,1,1,1,1,1,1,1,1,1,1,1,1,1,1,0,0,0,0,0,0,0,0,1,1,0,1,1,1,1,1,0,1,1,0,0,1,1,1,0,1,1,0,1,1,1,1,1,1,1,1,0,0,0,0,0,1,1,1,1,1,0,1,1,1,1,0,1,1,1,1,1,1,0,1,1,1,1,1,1,1,1,1,0,1,1,1,0,0,1,1,1,1,1,0,1,1,1,0,0,0,1,0,0,1,1,1,0,1,1,1,1,1]",0,,,,,,stimuli/white_butterfly.png,stimuli/grey_butterfly.png,1,stimuli/red_flower.png,stimuli/yellow_flower.png,stimuli/blue_flower.png,stimuli/green_flower.png,left,stimuli/objects/bathtub.jpg,1,5,stimuli/white_butterfly.png,1,3,2020-12-18_10h14.40.219,premce3DEU_ses-02_part-01_label-phase1,2020.1.2,MacIntel,60,,,,,right,0,0.928,0,29,29,29,1,,,,,,,,
,,,,,0,"[0,0,1,1,0,0,1,1,1,1,1,1,1,1,1,1,0,1,1,1,1,1,1,1,1,1,1,1,1,1,1,0,1,1,1,0,1,1,1,1,1,1,1,1,1,1,1,1,1,1,1,0,0,0,0,0,0,0,0,1,1,0,1,1,1,1,1,0,1,1,0,0,1,1,1,0,1,1,0,1,1,1,1,1,1,1,1,0,0,0,0,0,1,1,1,1,1,0,1,1,1,1,0,1,1,1,1,1,1,0,1,1,1,1,1,1,1,1,1,0,1,1,1,0,0,1,1,1,1,1,0,1,1,1,0,0,0,1,0,0,1,1,1,0,1,1,1,1,1,0]",0,,,,,,stimuli/grey_butterfly.png,stimuli/white_butterfly.png,2,stimuli/yellow_flower.png,stimuli/blue_flower.png,stimuli/green_flower.png,stimuli/red_flower.png,left,stimuli/objects/dromedary.jpg,0,5,stimuli/white_butterfly.png,1,3,2020-12-18_10h14.40.219,premce3DEU_ses-02_part-01_label-phase1,2020.1.2,MacIntel,60,,,,,right,0,0.459,0,30,30,30,1,,,,,,,,
,,,,,1,"[0,0,1,1,0,0,1,1,1,1,1,1,1,1,1,1,0,1,1,1,1,1,1,1,1,1,1,1,1,1,1,0,1,1,1,0,1,1,1,1,1,1,1,1,1,1,1,1,1,1,1,0,0,0,0,0,0,0,0,1,1,0,1,1,1,1,1,0,1,1,0,0,1,1,1,0,1,1,0,1,1,1,1,1,1,1,1,0,0,0,0,0,1,1,1,1,1,0,1,1,1,1,0,1,1,1,1,1,1,0,1,1,1,1,1,1,1,1,1,0,1,1,1,0,0,1,1,1,1,1,0,1,1,1,0,0,0,1,0,0,1,1,1,0,1,1,1,1,1,0]",1,,,,,,stimuli/white_butterfly.png,stimuli/grey_butterfly.png,2,stimuli/yellow_flower.png,stimuli/green_flower.png,stimuli/blue_flower.png,stimuli/red_flower.png,up,stimuli/objects/cactus.jpg,1,5,stimuli/grey_butterfly.png,1,3,2020-12-18_10h14.40.219,premce3DEU_ses-02_part-01_label-phase1,2020.1.2,MacIntel,60,,,,,up,1,0.501,0,31,31,31,1,,,,,,,,
,,,,,1,"[0,0,1,1,0,0,1,1,1,1,1,1,1,1,1,1,0,1,1,1,1,1,1,1,1,1,1,1,1,1,1,0,1,1,1,0,1,1,1,1,1,1,1,1,1,1,1,1,1,1,1,0,0,0,0,0,0,0,0,1,1,0,1,1,1,1,1,0,1,1,0,0,1,1,1,0,1,1,0,1,1,1,1,1,1,1,1,0,0,0,0,0,1,1,1,1,1,0,1,1,1,1,0,1,1,1,1,1,1,0,1,1,1,1,1,1,1,1,1,0,1,1,1,0,0,1,1,1,1,1,0,1,1,1,0,0,0,1,0,0,1,1,1,0,1,1,1,1,1,0,1]",1,,,,,,stimuli/grey_butterfly.png,stimuli/white_butterfly.png,2,stimuli/green_flower.png,stimuli/red_flower.png,stimuli/blue_flower.png,stimuli/yellow_flower.png,up,stimuli/objects/lionstatue.jpg,1,5,stimuli/white_butterfly.png,1,3,2020-12-18_10h14.40.219,premce3DEU_ses-02_part-01_label-phase1,2020.1.2,MacIntel,60,,,,,up,1,1.376,0,32,32,32,1,,,,,,,,
,,,,,1,"[0,0,1,1,0,0,1,1,1,1,1,1,1,1,1,1,0,1,1,1,1,1,1,1,1,1,1,1,1,1,1,0,1,1,1,0,1,1,1,1,1,1,1,1,1,1,1,1,1,1,1,0,0,0,0,0,0,0,0,1,1,0,1,1,1,1,1,0,1,1,0,0,1,1,1,0,1,1,0,1,1,1,1,1,1,1,1,0,0,0,0,0,1,1,1,1,1,0,1,1,1,1,0,1,1,1,1,1,1,0,1,1,1,1,1,1,1,1,1,0,1,1,1,0,0,1,1,1,1,1,0,1,1,1,0,0,0,1,0,0,1,1,1,0,1,1,1,1,1,0,1,1]",1,,,,,,stimuli/grey_butterfly.png,stimuli/white_butterfly.png,1,stimuli/red_flower.png,stimuli/yellow_flower.png,stimuli/blue_flower.png,stimuli/green_flower.png,right,stimuli/objects/locomotive.jpg,1,5,stimuli/grey_butterfly.png,1,3,2020-12-18_10h14.40.219,premce3DEU_ses-02_part-01_label-phase1,2020.1.2,MacIntel,60,,,,,right,1,0.953,0,33,33,33,1,,,,,,,,
,,,,,1,"[0,0,1,1,0,0,1,1,1,1,1,1,1,1,1,1,0,1,1,1,1,1,1,1,1,1,1,1,1,1,1,0,1,1,1,0,1,1,1,1,1,1,1,1,1,1,1,1,1,1,1,0,0,0,0,0,0,0,0,1,1,0,1,1,1,1,1,0,1,1,0,0,1,1,1,0,1,1,0,1,1,1,1,1,1,1,1,0,0,0,0,0,1,1,1,1,1,0,1,1,1,1,0,1,1,1,1,1,1,0,1,1,1,1,1,1,1,1,1,0,1,1,1,0,0,1,1,1,1,1,0,1,1,1,0,0,0,1,0,0,1,1,1,0,1,1,1,1,1,0,1,1,1]",1,,,,,,stimuli/grey_butterfly.png,stimuli/white_butterfly.png,2,stimuli/red_flower.png,stimuli/green_flower.png,stimuli/blue_flower.png,stimuli/yellow_flower.png,left,stimuli/objects/stepladder.jpg,1,5,stimuli/white_butterfly.png,1,3,2020-12-18_10h14.40.219,premce3DEU_ses-02_part-01_label-phase1,2020.1.2,MacIntel,60,,,,,left,1,1.387,0,34,34,34,1,,,,,,,,
,,,,,1,"[0,0,1,1,0,0,1,1,1,1,1,1,1,1,1,1,0,1,1,1,1,1,1,1,1,1,1,1,1,1,1,0,1,1,1,0,1,1,1,1,1,1,1,1,1,1,1,1,1,1,1,0,0,0,0,0,0,0,0,1,1,0,1,1,1,1,1,0,1,1,0,0,1,1,1,0,1,1,0,1,1,1,1,1,1,1,1,0,0,0,0,0,1,1,1,1,1,0,1,1,1,1,0,1,1,1,1,1,1,0,1,1,1,1,1,1,1,1,1,0,1,1,1,0,0,1,1,1,1,1,0,1,1,1,0,0,0,1,0,0,1,1,1,0,1,1,1,1,1,0,1,1,1,1]",1,,,,,,stimuli/grey_butterfly.png,stimuli/white_butterfly.png,2,stimuli/blue_flower.png,stimuli/red_flower.png,stimuli/yellow_flower.png,stimuli/green_flower.png,up,stimuli/objects/butterfly2.jpg,1,5,stimuli/white_butterfly.png,1,3,2020-12-18_10h14.40.219,premce3DEU_ses-02_part-01_label-phase1,2020.1.2,MacIntel,60,,,,,up,1,0.467,0,35,35,35,1,,,,,,,,
,,,,,1,"[0,0,1,1,0,0,1,1,1,1,1,1,1,1,1,1,0,1,1,1,1,1,1,1,1,1,1,1,1,1,1,0,1,1,1,0,1,1,1,1,1,1,1,1,1,1,1,1,1,1,1,0,0,0,0,0,0,0,0,1,1,0,1,1,1,1,1,0,1,1,0,0,1,1,1,0,1,1,0,1,1,1,1,1,1,1,1,0,0,0,0,0,1,1,1,1,1,0,1,1,1,1,0,1,1,1,1,1,1,0,1,1,1,1,1,1,1,1,1,0,1,1,1,0,0,1,1,1,1,1,0,1,1,1,0,0,0,1,0,0,1,1,1,0,1,1,1,1,1,0,1,1,1,1,1]",1,,,,,,stimuli/white_butterfly.png,stimuli/grey_butterfly.png,2,stimuli/blue_flower.png,stimuli/yellow_flower.png,stimuli/green_flower.png,stimuli/red_flower.png,down,stimuli/objects/battleaxe.jpg,1,5,stimuli/grey_butterfly.png,1,3,2020-12-18_10h14.40.219,premce3DEU_ses-02_part-01_label-phase1,2020.1.2,MacIntel,60,,,,,down,1,1.294,0,36,36,36,1,,,,,,,,
,,,,,1,"[0,0,1,1,0,0,1,1,1,1,1,1,1,1,1,1,0,1,1,1,1,1,1,1,1,1,1,1,1,1,1,0,1,1,1,0,1,1,1,1,1,1,1,1,1,1,1,1,1,1,1,0,0,0,0,0,0,0,0,1,1,0,1,1,1,1,1,0,1,1,0,0,1,1,1,0,1,1,0,1,1,1,1,1,1,1,1,0,0,0,0,0,1,1,1,1,1,0,1,1,1,1,0,1,1,1,1,1,1,0,1,1,1,1,1,1,1,1,1,0,1,1,1,0,0,1,1,1,1,1,0,1,1,1,0,0,0,1,0,0,1,1,1,0,1,1,1,1,1,0,1,1,1,1,1,1]",1,,,,,,stimuli/grey_butterfly.png,stimuli/white_butterfly.png,2,stimuli/red_flower.png,stimuli/yellow_flower.png,stimuli/blue_flower.png,stimuli/green_flower.png,left,stimuli/objects/crown.jpg,1,5,stimuli/white_butterfly.png,1,3,2020-12-18_10h14.40.219,premce3DEU_ses-02_part-01_label-phase1,2020.1.2,MacIntel,60,,,,,left,1,0.802,0,37,37,37,1,,,,,,,,
,,,,,0,"[0,0,1,1,0,0,1,1,1,1,1,1,1,1,1,1,0,1,1,1,1,1,1,1,1,1,1,1,1,1,1,0,1,1,1,0,1,1,1,1,1,1,1,1,1,1,1,1,1,1,1,0,0,0,0,0,0,0,0,1,1,0,1,1,1,1,1,0,1,1,0,0,1,1,1,0,1,1,0,1,1,1,1,1,1,1,1,0,0,0,0,0,1,1,1,1,1,0,1,1,1,1,0,1,1,1,1,1,1,0,1,1,1,1,1,1,1,1,1,0,1,1,1,0,0,1,1,1,1,1,0,1,1,1,0,0,0,1,0,0,1,1,1,0,1,1,1,1,1,0,1,1,1,1,1,1,1]",1,,,,,,stimuli/white_butterfly.png,stimuli/grey_butterfly.png,1,stimuli/blue_flower.png,stimuli/green_flower.png,stimuli/red_flower.png,stimuli/yellow_flower.png,up,stimuli/objects/dolphin01.jpg,0,5,stimuli/white_butterfly.png,1,3,2020-12-18_10h14.40.219,premce3DEU_ses-02_part-01_label-phase1,2020.1.2,MacIntel,60,,,,,down,0,0.634,0,38,38,38,1,,,,,,,,
,,,,,0,"[0,0,1,1,0,0,1,1,1,1,1,1,1,1,1,1,0,1,1,1,1,1,1,1,1,1,1,1,1,1,1,0,1,1,1,0,1,1,1,1,1,1,1,1,1,1,1,1,1,1,1,0,0,0,0,0,0,0,0,1,1,0,1,1,1,1,1,0,1,1,0,0,1,1,1,0,1,1,0,1,1,1,1,1,1,1,1,0,0,0,0,0,1,1,1,1,1,0,1,1,1,1,0,1,1,1,1,1,1,0,1,1,1,1,1,1,1,1,1,0,1,1,1,0,0,1,1,1,1,1,0,1,1,1,0,0,0,1,0,0,1,1,1,0,1,1,1,1,1,0,1,1,1,1,1,1,1]",0,,,,,,stimuli/grey_butterfly.png,stimuli/white_butterfly.png,2,stimuli/blue_flower.png,stimuli/yellow_flower.png,stimuli/green_flower.png,stimuli/red_flower.png,right,stimuli/objects/snowshovel.jpg,1,5,stimuli/white_butterfly.png,1,3,2020-12-18_10h14.40.219,premce3DEU_ses-02_part-01_label-phase1,2020.1.2,MacIntel,60,,,,,down,0,0.423,0,39,39,39,1,,,,,,,,
,,,,,1,"[0,0,1,1,0,0,1,1,1,1,1,1,1,1,1,1,0,1,1,1,1,1,1,1,1,1,1,1,1,1,1,0,1,1,1,0,1,1,1,1,1,1,1,1,1,1,1,1,1,1,1,0,0,0,0,0,0,0,0,1,1,0,1,1,1,1,1,0,1,1,0,0,1,1,1,0,1,1,0,1,1,1,1,1,1,1,1,0,0,0,0,0,1,1,1,1,1,0,1,1,1,1,0,1,1,1,1,1,1,0,1,1,1,1,1,1,1,1,1,0,1,1,1,0,0,1,1,1,1,1,0,1,1,1,0,0,0,1,0,0,1,1,1,0,1,1,1,1,1,0,1,1,1,1,1,1,1,0]",1,,,,,,stimuli/white_butterfly.png,stimuli/grey_butterfly.png,2,stimuli/green_flower.png,stimuli/yellow_flower.png,stimuli/red_flower.png,stimuli/blue_flower.png,left,stimuli/objects/lightswitch01.jpg,1,5,stimuli/grey_butterfly.png,1,3,2020-12-18_10h14.40.219,premce3DEU_ses-02_part-01_label-phase1,2020.1.2,MacIntel,60,,,,,left,1,0.533,0,40,40,40,1,,,,,,,,
,,,,,0,"[0,0,1,1,0,0,1,1,1,1,1,1,1,1,1,1,0,1,1,1,1,1,1,1,1,1,1,1,1,1,1,0,1,1,1,0,1,1,1,1,1,1,1,1,1,1,1,1,1,1,1,0,0,0,0,0,0,0,0,1,1,0,1,1,1,1,1,0,1,1,0,0,1,1,1,0,1,1,0,1,1,1,1,1,1,1,1,0,0,0,0,0,1,1,1,1,1,0,1,1,1,1,0,1,1,1,1,1,1,0,1,1,1,1,1,1,1,1,1,0,1,1,1,0,0,1,1,1,1,1,0,1,1,1,0,0,0,1,0,0,1,1,1,0,1,1,1,1,1,0,1,1,1,1,1,1,1,0,1]",1,,,,,,stimuli/grey_butterfly.png,stimuli/white_butterfly.png,2,stimuli/yellow_flower.png,stimuli/red_flower.png,stimuli/green_flower.png,stimuli/blue_flower.png,right,stimuli/objects/bleachers.jpg,0,5,stimuli/white_butterfly.png,1,3,2020-12-18_10h14.40.219,premce3DEU_ses-02_part-01_label-phase1,2020.1.2,MacIntel,60,,,,,up,0,0.643,0,41,41,41,1,,,,,,,,
,,,,,,,,,,,,,,,,,,,,,,,,,,3,2020-12-18_10h14.40.219,premce3DEU_ses-02_part-01_label-phase1,2020.1.2,MacIntel,60,,,,,,,,,,,,,,,,,,,space,3.357
