instructions_loop.thisRepN,instructions_loop.thisTrialN,instructions_loop.thisN,instructions_loop.thisIndex,instructions_loop.ran,text1,text2,text3,participant,date,expName,psychopyVersion,OS,frameRate,recog_resp.keys,recog_resp.rt,conf_resp.keys,conf_resp.rt,recog_loop.thisRepN,recog_loop.thisTrialN,recog_loop.thisN,recog_loop.thisIndex,recog_loop.ran,images,corr_ans,type,order,key_resp_break.keys,key_resp_break.rt,list_loop.thisRepN,list_loop.thisTrialN,list_loop.thisN,list_loop.thisIndex,list_loop.ran,recog_list
0,0,0,0,1,Willkommen zum letzten Teil des Experiments!,,Mit der LEERTASTE kannst du mit der Aufgabe fortfahren.,3,2020-12-18_10h37.05.759,premce3DEU_ses-02_part-02_label-phase2,2020.1.2,MacIntel,60,,,,,,,,,,,,,,,,,,,,,
0,1,1,1,1,,"Jetzt werden wir dir einige Bilder zeigen.

Bitte gib zu jedem Bild an, ob du du es im Verlauf des Experiments gesehen hast.

Drücke die LINKE PFEILTASTE für JA
Drücke die RECHTE PFEILTASTE für NEIN

",Mit der LEERTASTE kannst du mit der Aufgabe fortfahren.,3,2020-12-18_10h37.05.759,premce3DEU_ses-02_part-02_label-phase2,2020.1.2,MacIntel,60,,,,,,,,,,,,,,,,,,,,,
0,2,2,2,1,,"Anschließend bitten wir dich anzugeben wie sicher du dir bei deiner Wahl bist.

Bitte nutze die Zifferntasten von 1 bis 4 am oberen Ende deiner Tastatur um anzugeben, wie sicher du dir bei deiner Antwort bist.

Die Zahlen stehen für

1 = Sehr unsicher
2 = Unsicher
3 = Sicher
4 = Sehr sicher",Mit der LEERTASTE kannst du mit der Aufgabe fortfahren.,3,2020-12-18_10h37.05.759,premce3DEU_ses-02_part-02_label-phase2,2020.1.2,MacIntel,60,,,,,,,,,,,,,,,,,,,,,
,,,,,,,,3,2020-12-18_10h37.05.759,premce3DEU_ses-02_part-02_label-phase2,2020.1.2,MacIntel,60,right,1.507,2,5.573,0,0,0,136,1,stimuli/objects/mouse.jpg,right,new,297,,,,,,,,
,,,,,,,,3,2020-12-18_10h37.05.759,premce3DEU_ses-02_part-02_label-phase2,2020.1.2,MacIntel,60,right,1.309,2,1.435,0,1,1,1,1,stimuli/objects/tent.jpg,left,old,162,,,,,,,,
,,,,,,,,3,2020-12-18_10h37.05.759,premce3DEU_ses-02_part-02_label-phase2,2020.1.2,MacIntel,60,left,1.375,2,0.502,0,2,2,88,1,stimuli/objects/toilet.jpg,right,new,249,,,,,,,,
,,,,,,,,3,2020-12-18_10h37.05.759,premce3DEU_ses-02_part-02_label-phase2,2020.1.2,MacIntel,60,right,1.44,2,0.661,0,3,3,80,1,stimuli/objects/floorlamp.jpg,right,new,241,,,,,,,,
,,,,,,,,3,2020-12-18_10h37.05.759,premce3DEU_ses-02_part-02_label-phase2,2020.1.2,MacIntel,60,left,1.079,1,0.577,0,4,4,22,1,stimuli/objects/crab01.jpg,left,old,183,,,,,,,,
,,,,,,,,3,2020-12-18_10h37.05.759,premce3DEU_ses-02_part-02_label-phase2,2020.1.2,MacIntel,60,left,1.1,4,0.895,0,5,5,49,1,stimuli/objects/surfboard.jpg,left,old,210,,,,,,,,
,,,,,,,,3,2020-12-18_10h37.05.759,premce3DEU_ses-02_part-02_label-phase2,2020.1.2,MacIntel,60,right,1.011,2,0.7,0,6,6,76,1,stimuli/objects/statue.jpg,right,new,237,,,,,,,,
,,,,,,,,3,2020-12-18_10h37.05.759,premce3DEU_ses-02_part-02_label-phase2,2020.1.2,MacIntel,60,right,1.049,2,0.753,0,7,7,78,1,stimuli/objects/hockeypuck.jpg,left,old,239,,,,,,,,
,,,,,,,,3,2020-12-18_10h37.05.759,premce3DEU_ses-02_part-02_label-phase2,2020.1.2,MacIntel,60,right,2.366,2,0.53,0,8,8,91,1,stimuli/objects/shed02.jpg,right,new,252,,,,,,,,
,,,,,,,,3,2020-12-18_10h37.05.759,premce3DEU_ses-02_part-02_label-phase2,2020.1.2,MacIntel,60,left,1.261,4,0.739,0,9,9,117,1,stimuli/objects/fingerprint.jpg,left,old,278,,,,,,,,
,,,,,,,,3,2020-12-18_10h37.05.759,premce3DEU_ses-02_part-02_label-phase2,2020.1.2,MacIntel,60,right,0.903,2,0.491,0,10,10,62,1,stimuli/objects/painting.jpg,right,new,223,,,,,,,,
,,,,,,,,3,2020-12-18_10h37.05.759,premce3DEU_ses-02_part-02_label-phase2,2020.1.2,MacIntel,60,left,1.176,4,0.715,0,11,11,103,1,stimuli/objects/seagull.jpg,left,old,264,,,,,,,,
,,,,,,,,3,2020-12-18_10h37.05.759,premce3DEU_ses-02_part-02_label-phase2,2020.1.2,MacIntel,60,right,1.139,1,0.474,0,12,12,149,1,stimuli/objects/mortarandpestle.jpg,right,new,310,,,,,,,,
,,,,,,,,3,2020-12-18_10h37.05.759,premce3DEU_ses-02_part-02_label-phase2,2020.1.2,MacIntel,60,right,1.501,1,0.379,0,13,13,77,1,stimuli/objects/electricguitar01.jpg,left,old,238,,,,,,,,
,,,,,,,,3,2020-12-18_10h37.05.759,premce3DEU_ses-02_part-02_label-phase2,2020.1.2,MacIntel,60,right,1.035,3,0.605,0,14,14,9,1,stimuli/objects/flag.jpg,right,new,170,,,,,,,,
,,,,,,,,3,2020-12-18_10h37.05.759,premce3DEU_ses-02_part-02_label-phase2,2020.1.2,MacIntel,60,right,0.92,3,0.661,0,15,15,121,1,stimuli/objects/shield02.jpg,right,new,282,,,,,,,,
,,,,,,,,3,2020-12-18_10h37.05.759,premce3DEU_ses-02_part-02_label-phase2,2020.1.2,MacIntel,60,right,0.964,4,0.814,0,16,16,135,1,stimuli/objects/penguin.jpg,right,new,296,,,,,,,,
,,,,,,,,3,2020-12-18_10h37.05.759,premce3DEU_ses-02_part-02_label-phase2,2020.1.2,MacIntel,60,right,0.837,3,0.516,0,17,17,142,1,stimuli/objects/lightswitch01.jpg,left,old,303,,,,,,,,
,,,,,,,,3,2020-12-18_10h37.05.759,premce3DEU_ses-02_part-02_label-phase2,2020.1.2,MacIntel,60,right,0.734,3,0.439,0,18,18,23,1,stimuli/objects/graduationcap.jpg,right,new,184,,,,,,,,
,,,,,,,,3,2020-12-18_10h37.05.759,premce3DEU_ses-02_part-02_label-phase2,2020.1.2,MacIntel,60,left,1.032,4,0.45,0,19,19,41,1,stimuli/objects/zebra.jpg,left,old,202,,,,,,,,
,,,,,,,,3,2020-12-18_10h37.05.759,premce3DEU_ses-02_part-02_label-phase2,2020.1.2,MacIntel,60,left,1.114,3,0.367,0,20,20,146,1,stimuli/objects/tie02.jpg,left,old,307,,,,,,,,
,,,,,,,,3,2020-12-18_10h37.05.759,premce3DEU_ses-02_part-02_label-phase2,2020.1.2,MacIntel,60,left,0.824,4,0.382,0,21,21,79,1,stimuli/objects/polarbear.jpg,left,old,240,,,,,,,,
,,,,,,,,3,2020-12-18_10h37.05.759,premce3DEU_ses-02_part-02_label-phase2,2020.1.2,MacIntel,60,left,1.031,2,0.343,0,22,22,158,1,stimuli/objects/bowrake.jpg,right,new,319,,,,,,,,
,,,,,,,,3,2020-12-18_10h37.05.759,premce3DEU_ses-02_part-02_label-phase2,2020.1.2,MacIntel,60,left,1.374,2,0.289,0,23,23,96,1,stimuli/objects/hockeystick.jpg,left,old,257,,,,,,,,
,,,,,,,,3,2020-12-18_10h37.05.759,premce3DEU_ses-02_part-02_label-phase2,2020.1.2,MacIntel,60,left,0.771,2,0.154,0,24,24,154,1,stimuli/objects/frisbee.jpg,left,old,315,,,,,,,,
,,,,,,,,3,2020-12-18_10h37.05.759,premce3DEU_ses-02_part-02_label-phase2,2020.1.2,MacIntel,60,left,1.075,1,0.462,0,25,25,98,1,stimuli/objects/cashregister01.jpg,left,old,259,,,,,,,,
,,,,,,,,3,2020-12-18_10h37.05.759,premce3DEU_ses-02_part-02_label-phase2,2020.1.2,MacIntel,60,right,1.331,1,0.367,0,26,26,45,1,stimuli/objects/siamesecat.jpg,right,new,206,,,,,,,,
,,,,,,,,3,2020-12-18_10h37.05.759,premce3DEU_ses-02_part-02_label-phase2,2020.1.2,MacIntel,60,right,1.29,2,0.864,0,27,27,33,1,stimuli/objects/noparkingsign.jpg,right,new,194,,,,,,,,
,,,,,,,,3,2020-12-18_10h37.05.759,premce3DEU_ses-02_part-02_label-phase2,2020.1.2,MacIntel,60,right,1.817,3,0.364,0,28,28,17,1,stimuli/objects/saltshaker03a.jpg,right,new,178,,,,,,,,
,,,,,,,,3,2020-12-18_10h37.05.759,premce3DEU_ses-02_part-02_label-phase2,2020.1.2,MacIntel,60,left,1.137,1,0.46,0,29,29,30,1,stimuli/objects/key07.jpg,left,old,191,,,,,,,,
,,,,,,,,3,2020-12-18_10h37.05.759,premce3DEU_ses-02_part-02_label-phase2,2020.1.2,MacIntel,60,left,0.998,2,0.25,0,30,30,100,1,stimuli/objects/doubledoors.jpg,left,old,261,,,,,,,,
,,,,,,,,3,2020-12-18_10h37.05.759,premce3DEU_ses-02_part-02_label-phase2,2020.1.2,MacIntel,60,left,1.088,3,0.363,0,31,31,36,1,stimuli/objects/sandcastle.jpg,left,old,197,,,,,,,,
,,,,,,,,3,2020-12-18_10h37.05.759,premce3DEU_ses-02_part-02_label-phase2,2020.1.2,MacIntel,60,left,0.763,3,0.009,0,32,32,24,1,stimuli/objects/jaguar.jpg,left,old,185,,,,,,,,
,,,,,,,,3,2020-12-18_10h37.05.759,premce3DEU_ses-02_part-02_label-phase2,2020.1.2,MacIntel,60,left,1.164,1,0.002,0,33,33,131,1,stimuli/objects/boxingglove01.jpg,right,new,292,,,,,,,,
,,,,,,,,3,2020-12-18_10h37.05.759,premce3DEU_ses-02_part-02_label-phase2,2020.1.2,MacIntel,60,left,0.948,4,0.205,0,34,34,14,1,stimuli/objects/ipad02.jpg,left,old,175,,,,,,,,
,,,,,,,,3,2020-12-18_10h37.05.759,premce3DEU_ses-02_part-02_label-phase2,2020.1.2,MacIntel,60,left,0.967,2,0.264,0,35,35,20,1,stimuli/objects/toysoldier01b.jpg,right,new,181,,,,,,,,
,,,,,,,,3,2020-12-18_10h37.05.759,premce3DEU_ses-02_part-02_label-phase2,2020.1.2,MacIntel,60,left,0.796,4,0.288,0,36,36,111,1,stimuli/objects/jellybean.jpg,left,old,272,,,,,,,,
,,,,,,,,3,2020-12-18_10h37.05.759,premce3DEU_ses-02_part-02_label-phase2,2020.1.2,MacIntel,60,right,1.039,1,0.246,0,37,37,63,1,stimuli/objects/pin.jpg,right,new,224,,,,,,,,
,,,,,,,,3,2020-12-18_10h37.05.759,premce3DEU_ses-02_part-02_label-phase2,2020.1.2,MacIntel,60,left,0.998,1,0.349,0,38,38,13,1,stimuli/objects/sailboat.jpg,left,old,174,,,,,,,,
,,,,,,,,3,2020-12-18_10h37.05.759,premce3DEU_ses-02_part-02_label-phase2,2020.1.2,MacIntel,60,left,0.879,4,0.633,0,39,39,83,1,stimuli/objects/recyclingbin.jpg,left,old,244,,,,,,,,
,,,,,,,,3,2020-12-18_10h37.05.759,premce3DEU_ses-02_part-02_label-phase2,2020.1.2,MacIntel,60,left,0.906,3,0.463,0,40,40,155,1,stimuli/objects/fishingrod.jpg,left,old,316,,,,,,,,
,,,,,,,,3,2020-12-18_10h37.05.759,premce3DEU_ses-02_part-02_label-phase2,2020.1.2,MacIntel,60,right,1.314,1,0.087,0,41,41,50,1,stimuli/objects/cowbell.jpg,right,new,211,,,,,,,,
,,,,,,,,3,2020-12-18_10h37.05.759,premce3DEU_ses-02_part-02_label-phase2,2020.1.2,MacIntel,60,left,1.343,2,0.342,0,42,42,141,1,stimuli/objects/gong.jpg,left,old,302,,,,,,,,
,,,,,,,,3,2020-12-18_10h37.05.759,premce3DEU_ses-02_part-02_label-phase2,2020.1.2,MacIntel,60,right,1.233,2,0.283,0,43,43,137,1,stimuli/objects/waterfall.jpg,right,new,298,,,,,,,,
,,,,,,,,3,2020-12-18_10h37.05.759,premce3DEU_ses-02_part-02_label-phase2,2020.1.2,MacIntel,60,left,1.05,3,1.094,0,44,44,94,1,stimuli/objects/scorpion.jpg,right,new,255,,,,,,,,
,,,,,,,,3,2020-12-18_10h37.05.759,premce3DEU_ses-02_part-02_label-phase2,2020.1.2,MacIntel,60,right,0.697,2,0.398,0,45,45,127,1,stimuli/objects/shelf.jpg,right,new,288,,,,,,,,
,,,,,,,,3,2020-12-18_10h37.05.759,premce3DEU_ses-02_part-02_label-phase2,2020.1.2,MacIntel,60,right,0.952,2,0.383,0,46,46,40,1,stimuli/objects/beehive.jpg,right,new,201,,,,,,,,
,,,,,,,,3,2020-12-18_10h37.05.759,premce3DEU_ses-02_part-02_label-phase2,2020.1.2,MacIntel,60,right,0.76,2,0.337,0,47,47,128,1,stimuli/objects/chime.jpg,left,old,289,,,,,,,,
,,,,,,,,3,2020-12-18_10h37.05.759,premce3DEU_ses-02_part-02_label-phase2,2020.1.2,MacIntel,60,right,0.676,2,0.252,0,48,48,5,1,stimuli/objects/wheelchair.jpg,left,old,166,,,,,,,,
,,,,,,,,3,2020-12-18_10h37.05.759,premce3DEU_ses-02_part-02_label-phase2,2020.1.2,MacIntel,60,right,4.82,4,0.564,0,49,49,122,1,stimuli/objects/lip.jpg,right,new,283,,,,,,,,
,,,,,,,,3,2020-12-18_10h37.05.759,premce3DEU_ses-02_part-02_label-phase2,2020.1.2,MacIntel,60,right,1.231,2,0.002,0,50,50,124,1,stimuli/objects/swing.jpg,right,new,285,,,,,,,,
,,,,,,,,3,2020-12-18_10h37.05.759,premce3DEU_ses-02_part-02_label-phase2,2020.1.2,MacIntel,60,right,0.909,2,0.341,0,51,51,47,1,stimuli/objects/candycane01a.jpg,left,old,208,,,,,,,,
,,,,,,,,3,2020-12-18_10h37.05.759,premce3DEU_ses-02_part-02_label-phase2,2020.1.2,MacIntel,60,right,0.753,2,0.213,0,52,52,159,1,stimuli/objects/footballhelmet.jpg,left,old,320,,,,,,,,
,,,,,,,,3,2020-12-18_10h37.05.759,premce3DEU_ses-02_part-02_label-phase2,2020.1.2,MacIntel,60,left,1.15,4,0.348,0,53,53,2,1,stimuli/objects/moon.jpg,left,old,163,,,,,,,,
,,,,,,,,3,2020-12-18_10h37.05.759,premce3DEU_ses-02_part-02_label-phase2,2020.1.2,MacIntel,60,right,0.892,3,1.253,0,54,54,38,1,stimuli/objects/bread.jpg,right,new,199,,,,,,,,
,,,,,,,,3,2020-12-18_10h37.05.759,premce3DEU_ses-02_part-02_label-phase2,2020.1.2,MacIntel,60,left,1.223,4,0.284,0,55,55,151,1,stimuli/objects/jellyfish.jpg,left,old,312,,,,,,,,
,,,,,,,,3,2020-12-18_10h37.05.759,premce3DEU_ses-02_part-02_label-phase2,2020.1.2,MacIntel,60,right,0.771,1,0.422,0,56,56,133,1,stimuli/objects/kiwi03.jpg,right,new,294,,,,,,,,
,,,,,,,,3,2020-12-18_10h37.05.759,premce3DEU_ses-02_part-02_label-phase2,2020.1.2,MacIntel,60,right,0.823,1,0.407,0,57,57,58,1,stimuli/objects/tricycle.jpg,left,old,219,,,,,,,,
,,,,,,,,3,2020-12-18_10h37.05.759,premce3DEU_ses-02_part-02_label-phase2,2020.1.2,MacIntel,60,right,0.803,3,1.348,0,58,58,4,1,stimuli/objects/blender.jpg,left,old,165,,,,,,,,
,,,,,,,,3,2020-12-18_10h37.05.759,premce3DEU_ses-02_part-02_label-phase2,2020.1.2,MacIntel,60,right,1.532,2,0.474,0,59,59,140,1,stimuli/objects/treadmill.jpg,left,old,301,,,,,,,,
,,,,,,,,3,2020-12-18_10h37.05.759,premce3DEU_ses-02_part-02_label-phase2,2020.1.2,MacIntel,60,left,1.244,3,0.689,0,60,60,39,1,stimuli/objects/desktopcomputer.jpg,left,old,200,,,,,,,,
,,,,,,,,3,2020-12-18_10h37.05.759,premce3DEU_ses-02_part-02_label-phase2,2020.1.2,MacIntel,60,left,1.015,4,0.251,0,61,61,97,1,stimuli/objects/greywolf.jpg,left,old,258,,,,,,,,
,,,,,,,,3,2020-12-18_10h37.05.759,premce3DEU_ses-02_part-02_label-phase2,2020.1.2,MacIntel,60,right,0.763,2,0.664,0,62,62,107,1,stimuli/objects/tambourine03.jpg,right,new,268,,,,,,,,
,,,,,,,,3,2020-12-18_10h37.05.759,premce3DEU_ses-02_part-02_label-phase2,2020.1.2,MacIntel,60,right,0.893,1,0.421,0,63,63,51,1,stimuli/objects/kangaroo01.jpg,right,new,212,,,,,,,,
,,,,,,,,3,2020-12-18_10h37.05.759,premce3DEU_ses-02_part-02_label-phase2,2020.1.2,MacIntel,60,right,0.805,1,0.308,0,64,64,21,1,stimuli/objects/gorilla.jpg,right,new,182,,,,,,,,
,,,,,,,,3,2020-12-18_10h37.05.759,premce3DEU_ses-02_part-02_label-phase2,2020.1.2,MacIntel,60,right,0.87,1,0.223,0,65,65,0,1,stimuli/objects/hulahoop.jpg,left,old,161,,,,,,,,
,,,,,,,,3,2020-12-18_10h37.05.759,premce3DEU_ses-02_part-02_label-phase2,2020.1.2,MacIntel,60,left,1.011,4,0.261,0,66,66,99,1,stimuli/objects/bacon.jpg,left,old,260,,,,,,,,
,,,,,,,,3,2020-12-18_10h37.05.759,premce3DEU_ses-02_part-02_label-phase2,2020.1.2,MacIntel,60,left,0.777,2,0.347,0,67,67,15,1,stimuli/objects/stool01.jpg,left,old,176,,,,,,,,
,,,,,,,,3,2020-12-18_10h37.05.759,premce3DEU_ses-02_part-02_label-phase2,2020.1.2,MacIntel,60,right,0.835,1,0.287,0,68,68,105,1,stimuli/objects/beerbottle.jpg,left,old,266,,,,,,,,
,,,,,,,,3,2020-12-18_10h37.05.759,premce3DEU_ses-02_part-02_label-phase2,2020.1.2,MacIntel,60,left,0.999,4,0.147,0,69,69,86,1,stimuli/objects/trafficlight.jpg,left,old,247,,,,,,,,
,,,,,,,,3,2020-12-18_10h37.05.759,premce3DEU_ses-02_part-02_label-phase2,2020.1.2,MacIntel,60,right,0.789,1,0.318,0,70,70,35,1,stimuli/objects/xylophone.jpg,left,old,196,,,,,,,,
,,,,,,,,3,2020-12-18_10h37.05.759,premce3DEU_ses-02_part-02_label-phase2,2020.1.2,MacIntel,60,right,0.7,1,0.265,0,71,71,150,1,stimuli/objects/strap.jpg,right,new,311,,,,,,,,
,,,,,,,,3,2020-12-18_10h37.05.759,premce3DEU_ses-02_part-02_label-phase2,2020.1.2,MacIntel,60,left,0.839,3,0.288,0,72,72,8,1,stimuli/objects/cloud.jpg,left,old,169,,,,,,,,
,,,,,,,,3,2020-12-18_10h37.05.759,premce3DEU_ses-02_part-02_label-phase2,2020.1.2,MacIntel,60,left,0.897,4,0.023,0,73,73,132,1,stimuli/objects/windshieldwiper02.jpg,left,old,293,,,,,,,,
,,,,,,,,3,2020-12-18_10h37.05.759,premce3DEU_ses-02_part-02_label-phase2,2020.1.2,MacIntel,60,left,1.172,2,0.315,0,74,74,156,1,stimuli/objects/shovel01.jpg,left,old,317,,,,,,,,
,,,,,,,,3,2020-12-18_10h37.05.759,premce3DEU_ses-02_part-02_label-phase2,2020.1.2,MacIntel,60,right,0.727,3,0.508,0,75,75,32,1,stimuli/objects/cross01.jpg,right,new,193,,,,,,,,
,,,,,,,,3,2020-12-18_10h37.05.759,premce3DEU_ses-02_part-02_label-phase2,2020.1.2,MacIntel,60,left,1.106,1,0.313,0,76,76,81,1,stimuli/objects/raccoon.jpg,right,new,242,,,,,,,,
,,,,,,,,3,2020-12-18_10h37.05.759,premce3DEU_ses-02_part-02_label-phase2,2020.1.2,MacIntel,60,right,1.325,1,0.277,0,77,77,31,1,stimuli/objects/horseshoe.jpg,right,new,192,,,,,,,,
,,,,,,,,3,2020-12-18_10h37.05.759,premce3DEU_ses-02_part-02_label-phase2,2020.1.2,MacIntel,60,right,0.924,3,0.304,0,78,78,61,1,stimuli/objects/parrot01.jpg,right,new,222,,,,,,,,
,,,,,,,,3,2020-12-18_10h37.05.759,premce3DEU_ses-02_part-02_label-phase2,2020.1.2,MacIntel,60,right,1.194,2,0.384,0,79,79,66,1,stimuli/objects/tricornhat.jpg,right,new,227,,,,,,,,
,,,,,,,,3,2020-12-18_10h37.05.759,premce3DEU_ses-02_part-02_label-phase2,2020.1.2,MacIntel,60,right,0.783,4,0.527,0,80,80,59,1,stimuli/objects/nosmokingsign.jpg,right,new,220,,,,,,,,
,,,,,,,,3,2020-12-18_10h37.05.759,premce3DEU_ses-02_part-02_label-phase2,2020.1.2,MacIntel,60,right,1.05,3,0.27,0,81,81,69,1,stimuli/objects/bumpercar.jpg,right,new,230,,,,,,,,
,,,,,,,,3,2020-12-18_10h37.05.759,premce3DEU_ses-02_part-02_label-phase2,2020.1.2,MacIntel,60,right,0.672,3,0.148,0,82,82,115,1,stimuli/objects/witchhat.jpg,left,old,276,,,,,,,,
,,,,,,,,3,2020-12-18_10h37.05.759,premce3DEU_ses-02_part-02_label-phase2,2020.1.2,MacIntel,60,right,0.899,1,0.709,0,83,83,25,1,stimuli/objects/scooter.jpg,right,new,186,,,,,,,,
,,,,,,,,3,2020-12-18_10h37.05.759,premce3DEU_ses-02_part-02_label-phase2,2020.1.2,MacIntel,60,right,1.154,2,0.33,0,84,84,18,1,stimuli/objects/showerhead01.jpg,left,old,179,,,,,,,,
,,,,,,,,3,2020-12-18_10h37.05.759,premce3DEU_ses-02_part-02_label-phase2,2020.1.2,MacIntel,60,left,1.195,4,0.163,0,85,85,28,1,stimuli/objects/car.jpg,left,old,189,,,,,,,,
,,,,,,,,3,2020-12-18_10h37.05.759,premce3DEU_ses-02_part-02_label-phase2,2020.1.2,MacIntel,60,right,1.461,1,0.002,0,86,86,145,1,stimuli/objects/rooster.jpg,right,new,306,,,,,,,,
,,,,,,,,3,2020-12-18_10h37.05.759,premce3DEU_ses-02_part-02_label-phase2,2020.1.2,MacIntel,60,right,0.784,1,0.354,0,87,87,90,1,stimuli/objects/battleaxe.jpg,left,old,251,,,,,,,,
,,,,,,,,3,2020-12-18_10h37.05.759,premce3DEU_ses-02_part-02_label-phase2,2020.1.2,MacIntel,60,left,1.08,4,0.157,0,88,88,42,1,stimuli/objects/asianelephant.jpg,left,old,203,,,,,,,,
,,,,,,,,3,2020-12-18_10h37.05.759,premce3DEU_ses-02_part-02_label-phase2,2020.1.2,MacIntel,60,right,0.852,2,0.904,0,89,89,3,1,stimuli/objects/bathtub.jpg,left,old,164,,,,,,,,
,,,,,,,,3,2020-12-18_10h37.05.759,premce3DEU_ses-02_part-02_label-phase2,2020.1.2,MacIntel,60,right,0.909,2,0.255,0,90,90,152,1,stimuli/objects/harmonica.jpg,right,new,313,,,,,,,,
,,,,,,,,3,2020-12-18_10h37.05.759,premce3DEU_ses-02_part-02_label-phase2,2020.1.2,MacIntel,60,right,1.485,3,0.061,0,91,91,6,1,stimuli/objects/popcorn.jpg,right,new,167,,,,,,,,
,,,,,,,,3,2020-12-18_10h37.05.759,premce3DEU_ses-02_part-02_label-phase2,2020.1.2,MacIntel,60,left,1.029,4,0.242,0,92,92,147,1,stimuli/objects/bleachers.jpg,left,old,308,,,,,,,,
,,,,,,,,3,2020-12-18_10h37.05.759,premce3DEU_ses-02_part-02_label-phase2,2020.1.2,MacIntel,60,right,0.907,2,0.305,0,93,93,60,1,stimuli/objects/hammerheadshark.jpg,right,new,221,,,,,,,,
,,,,,,,,3,2020-12-18_10h37.05.759,premce3DEU_ses-02_part-02_label-phase2,2020.1.2,MacIntel,60,left,0.928,4,0.268,0,94,94,11,1,stimuli/objects/dolphin01.jpg,left,old,172,,,,,,,,
,,,,,,,,3,2020-12-18_10h37.05.759,premce3DEU_ses-02_part-02_label-phase2,2020.1.2,MacIntel,60,right,1.008,2,0.659,0,95,95,118,1,stimuli/objects/wallclock.jpg,right,new,279,,,,,,,,
,,,,,,,,3,2020-12-18_10h37.05.759,premce3DEU_ses-02_part-02_label-phase2,2020.1.2,MacIntel,60,left,0.991,4,0.186,0,96,96,44,1,stimuli/objects/donut.jpg,left,old,205,,,,,,,,
,,,,,,,,3,2020-12-18_10h37.05.759,premce3DEU_ses-02_part-02_label-phase2,2020.1.2,MacIntel,60,right,0.923,1,0.294,0,97,97,93,1,stimuli/objects/slushiemachine.jpg,right,new,254,,,,,,,,
,,,,,,,,3,2020-12-18_10h37.05.759,premce3DEU_ses-02_part-02_label-phase2,2020.1.2,MacIntel,60,right,0.832,1,0.199,0,98,98,138,1,stimuli/objects/ladybug03.jpg,right,new,299,,,,,,,,
,,,,,,,,3,2020-12-18_10h37.05.759,premce3DEU_ses-02_part-02_label-phase2,2020.1.2,MacIntel,60,right,0.706,1,0.298,0,99,99,104,1,stimuli/objects/rockingchair.jpg,left,old,265,,,,,,,,
,,,,,,,,3,2020-12-18_10h37.05.759,premce3DEU_ses-02_part-02_label-phase2,2020.1.2,MacIntel,60,right,0.847,1,0.332,0,100,100,48,1,stimuli/objects/rubikcube.jpg,right,new,209,,,,,,,,
,,,,,,,,3,2020-12-18_10h37.05.759,premce3DEU_ses-02_part-02_label-phase2,2020.1.2,MacIntel,60,right,0.69,1,0.167,0,101,101,120,1,stimuli/objects/airhockeytable.jpg,right,new,281,,,,,,,,
,,,,,,,,3,2020-12-18_10h37.05.759,premce3DEU_ses-02_part-02_label-phase2,2020.1.2,MacIntel,60,right,0.746,2,0.503,0,102,102,84,1,stimuli/objects/carbattery.jpg,right,new,245,,,,,,,,
,,,,,,,,3,2020-12-18_10h37.05.759,premce3DEU_ses-02_part-02_label-phase2,2020.1.2,MacIntel,60,left,1.247,4,0.436,0,103,103,125,1,stimuli/objects/whiteout.jpg,left,old,286,,,,,,,,
,,,,,,,,3,2020-12-18_10h37.05.759,premce3DEU_ses-02_part-02_label-phase2,2020.1.2,MacIntel,60,right,1.151,2,0.225,0,104,104,82,1,stimuli/objects/duck01.jpg,left,old,243,,,,,,,,
,,,,,,,,3,2020-12-18_10h37.05.759,premce3DEU_ses-02_part-02_label-phase2,2020.1.2,MacIntel,60,right,0.801,2,0.201,0,105,105,29,1,stimuli/objects/steeringwheel.jpg,right,new,190,,,,,,,,
,,,,,,,,3,2020-12-18_10h37.05.759,premce3DEU_ses-02_part-02_label-phase2,2020.1.2,MacIntel,60,left,1.607,4,0.115,0,106,106,55,1,stimuli/objects/dogsled.jpg,left,old,216,,,,,,,,
,,,,,,,,3,2020-12-18_10h37.05.759,premce3DEU_ses-02_part-02_label-phase2,2020.1.2,MacIntel,60,right,0.933,1,0.854,0,107,107,102,1,stimuli/objects/baseballglove.jpg,left,old,263,,,,,,,,
,,,,,,,,3,2020-12-18_10h37.05.759,premce3DEU_ses-02_part-02_label-phase2,2020.1.2,MacIntel,60,right,1.336,2,0.113,0,108,108,148,1,stimuli/objects/snowglobe.jpg,left,old,309,,,,,,,,
,,,,,,,,3,2020-12-18_10h37.05.759,premce3DEU_ses-02_part-02_label-phase2,2020.1.2,MacIntel,60,left,0.885,2,0.353,0,109,109,116,1,stimuli/objects/rollerblade.jpg,left,old,277,,,,,,,,
,,,,,,,,3,2020-12-18_10h37.05.759,premce3DEU_ses-02_part-02_label-phase2,2020.1.2,MacIntel,60,right,1.07,3,1.229,0,110,110,57,1,stimuli/objects/spaghetti01.jpg,right,new,218,,,,,,,,
,,,,,,,,3,2020-12-18_10h37.05.759,premce3DEU_ses-02_part-02_label-phase2,2020.1.2,MacIntel,60,right,0.862,1,0.301,0,111,111,43,1,stimuli/objects/poolcue.jpg,right,new,204,,,,,,,,
,,,,,,,,3,2020-12-18_10h37.05.759,premce3DEU_ses-02_part-02_label-phase2,2020.1.2,MacIntel,60,right,0.748,1,0.348,0,112,112,67,1,stimuli/objects/snowshovel.jpg,left,old,228,,,,,,,,
,,,,,,,,3,2020-12-18_10h37.05.759,premce3DEU_ses-02_part-02_label-phase2,2020.1.2,MacIntel,60,left,0.951,4,0.002,0,113,113,89,1,stimuli/objects/cruiseship.jpg,left,old,250,,,,,,,,
,,,,,,,,3,2020-12-18_10h37.05.759,premce3DEU_ses-02_part-02_label-phase2,2020.1.2,MacIntel,60,right,0.889,1,2.026,0,114,114,101,1,stimuli/objects/microphone01.jpg,right,new,262,,,,,,,,
,,,,,,,,3,2020-12-18_10h37.05.759,premce3DEU_ses-02_part-02_label-phase2,2020.1.2,MacIntel,60,right,1.256,1,0.253,0,115,115,64,1,stimuli/objects/trojanhorse.jpg,right,new,225,,,,,,,,
,,,,,,,,3,2020-12-18_10h37.05.759,premce3DEU_ses-02_part-02_label-phase2,2020.1.2,MacIntel,60,right,1.988,2,0.151,0,116,116,123,1,stimuli/objects/ironingboard01.jpg,left,old,284,,,,,,,,
,,,,,,,,3,2020-12-18_10h37.05.759,premce3DEU_ses-02_part-02_label-phase2,2020.1.2,MacIntel,60,right,0.698,2,0.194,0,117,117,27,1,stimuli/objects/tombstone.jpg,right,new,188,,,,,,,,
,,,,,,,,3,2020-12-18_10h37.05.759,premce3DEU_ses-02_part-02_label-phase2,2020.1.2,MacIntel,60,left,1.735,2,0.554,0,118,118,126,1,stimuli/objects/birdfeeder.jpg,left,old,287,,,,,,,,
,,,,,,,,3,2020-12-18_10h37.05.759,premce3DEU_ses-02_part-02_label-phase2,2020.1.2,MacIntel,60,right,1.078,2,0.384,0,119,119,46,1,stimuli/objects/kneepad01c.jpg,right,new,207,,,,,,,,
,,,,,,,,3,2020-12-18_10h37.05.759,premce3DEU_ses-02_part-02_label-phase2,2020.1.2,MacIntel,60,right,0.95,2,0.407,0,120,120,106,1,stimuli/objects/squirrel.jpg,right,new,267,,,,,,,,
,,,,,,,,3,2020-12-18_10h37.05.759,premce3DEU_ses-02_part-02_label-phase2,2020.1.2,MacIntel,60,right,1.137,3,0.28,0,121,121,113,1,stimuli/objects/bluejay.jpg,right,new,274,,,,,,,,
,,,,,,,,3,2020-12-18_10h37.05.759,premce3DEU_ses-02_part-02_label-phase2,2020.1.2,MacIntel,60,right,0.808,4,0.496,0,122,122,109,1,stimuli/objects/spiderweb.jpg,right,new,270,,,,,,,,
,,,,,,,,3,2020-12-18_10h37.05.759,premce3DEU_ses-02_part-02_label-phase2,2020.1.2,MacIntel,60,right,1.124,2,0.631,0,123,123,134,1,stimuli/objects/bikelock.jpg,right,new,295,,,,,,,,
,,,,,,,,3,2020-12-18_10h37.05.759,premce3DEU_ses-02_part-02_label-phase2,2020.1.2,MacIntel,60,right,0.928,2,0.27,0,124,124,10,1,stimuli/objects/spicerack.jpg,left,old,171,,,,,,,,
,,,,,,,,3,2020-12-18_10h37.05.759,premce3DEU_ses-02_part-02_label-phase2,2020.1.2,MacIntel,60,right,1.309,1,1.002,0,125,125,7,1,stimuli/objects/bolt01a.jpg,left,old,168,,,,,,,,
,,,,,,,,3,2020-12-18_10h37.05.759,premce3DEU_ses-02_part-02_label-phase2,2020.1.2,MacIntel,60,right,1.154,1,0.132,0,126,126,68,1,stimuli/objects/drumset.jpg,right,new,229,,,,,,,,
,,,,,,,,3,2020-12-18_10h37.05.759,premce3DEU_ses-02_part-02_label-phase2,2020.1.2,MacIntel,60,left,1.151,4,0.227,0,127,127,56,1,stimuli/objects/toyanimal05.jpg,left,old,217,,,,,,,,
,,,,,,,,3,2020-12-18_10h37.05.759,premce3DEU_ses-02_part-02_label-phase2,2020.1.2,MacIntel,60,right,0.866,2,0.415,0,128,128,110,1,stimuli/objects/funnel.jpg,right,new,271,,,,,,,,
,,,,,,,,3,2020-12-18_10h37.05.759,premce3DEU_ses-02_part-02_label-phase2,2020.1.2,MacIntel,60,right,0.717,2,0.38,0,129,129,74,1,stimuli/objects/turnstile.jpg,right,new,235,,,,,,,,
,,,,,,,,3,2020-12-18_10h37.05.759,premce3DEU_ses-02_part-02_label-phase2,2020.1.2,MacIntel,60,right,0.761,2,0.179,0,130,130,34,1,stimuli/objects/shelves.jpg,left,old,195,,,,,,,,
,,,,,,,,3,2020-12-18_10h37.05.759,premce3DEU_ses-02_part-02_label-phase2,2020.1.2,MacIntel,60,right,0.952,4,0.53,0,131,131,143,1,stimuli/objects/taxisign.jpg,right,new,304,,,,,,,,
,,,,,,,,3,2020-12-18_10h37.05.759,premce3DEU_ses-02_part-02_label-phase2,2020.1.2,MacIntel,60,left,1.153,4,0.072,0,132,132,52,1,stimuli/objects/acorn.jpg,left,old,213,,,,,,,,
,,,,,,,,3,2020-12-18_10h37.05.759,premce3DEU_ses-02_part-02_label-phase2,2020.1.2,MacIntel,60,right,0.881,2,0.327,0,133,133,73,1,stimuli/objects/barrel01.jpg,left,old,234,,,,,,,,
,,,,,,,,3,2020-12-18_10h37.05.759,premce3DEU_ses-02_part-02_label-phase2,2020.1.2,MacIntel,60,right,1.099,1,0.353,0,134,134,54,1,stimuli/objects/acousticguitar02.jpg,right,new,215,,,,,,,,
,,,,,,,,3,2020-12-18_10h37.05.759,premce3DEU_ses-02_part-02_label-phase2,2020.1.2,MacIntel,60,right,1.361,1,0.034,0,135,135,85,1,stimuli/objects/skiboot01a.jpg,left,old,246,,,,,,,,
,,,,,,,,3,2020-12-18_10h37.05.759,premce3DEU_ses-02_part-02_label-phase2,2020.1.2,MacIntel,60,right,0.745,2,0.112,0,136,136,26,1,stimuli/objects/schoolbus.jpg,right,new,187,,,,,,,,
,,,,,,,,3,2020-12-18_10h37.05.759,premce3DEU_ses-02_part-02_label-phase2,2020.1.2,MacIntel,60,right,0.773,1,1.031,0,137,137,70,1,stimuli/objects/cormorant.jpg,right,new,231,,,,,,,,
,,,,,,,,3,2020-12-18_10h37.05.759,premce3DEU_ses-02_part-02_label-phase2,2020.1.2,MacIntel,60,right,0.817,1,0.206,0,138,138,37,1,stimuli/objects/football.jpg,left,old,198,,,,,,,,
,,,,,,,,3,2020-12-18_10h37.05.759,premce3DEU_ses-02_part-02_label-phase2,2020.1.2,MacIntel,60,right,0.869,1,0.153,0,139,139,72,1,stimuli/objects/doghouse.jpg,left,old,233,,,,,,,,
,,,,,,,,3,2020-12-18_10h37.05.759,premce3DEU_ses-02_part-02_label-phase2,2020.1.2,MacIntel,60,right,0.738,2,0.435,0,140,140,139,1,stimuli/objects/locomotive.jpg,left,old,300,,,,,,,,
,,,,,,,,3,2020-12-18_10h37.05.759,premce3DEU_ses-02_part-02_label-phase2,2020.1.2,MacIntel,60,right,0.505,1,0.534,0,141,141,75,1,stimuli/objects/bookshelf.jpg,left,old,236,,,,,,,,
,,,,,,,,3,2020-12-18_10h37.05.759,premce3DEU_ses-02_part-02_label-phase2,2020.1.2,MacIntel,60,right,1.041,1,0.057,0,142,142,92,1,stimuli/objects/mirror02.jpg,left,old,253,,,,,,,,
,,,,,,,,3,2020-12-18_10h37.05.759,premce3DEU_ses-02_part-02_label-phase2,2020.1.2,MacIntel,60,right,0.732,1,0.104,0,143,143,114,1,stimuli/objects/cymbal.jpg,left,old,275,,,,,,,,
,,,,,,,,3,2020-12-18_10h37.05.759,premce3DEU_ses-02_part-02_label-phase2,2020.1.2,MacIntel,60,left,1.543,1,0.002,0,144,144,16,1,stimuli/objects/dartboard.jpg,left,old,177,,,,,,,,
,,,,,,,,3,2020-12-18_10h37.05.759,premce3DEU_ses-02_part-02_label-phase2,2020.1.2,MacIntel,60,right,1.006,3,0.431,0,145,145,119,1,stimuli/objects/sandbarshark.jpg,right,new,280,,,,,,,,
,,,,,,,,3,2020-12-18_10h37.05.759,premce3DEU_ses-02_part-02_label-phase2,2020.1.2,MacIntel,60,right,0.829,3,0.12,0,146,146,144,1,stimuli/objects/walkietalkie.jpg,right,new,305,,,,,,,,
,,,,,,,,3,2020-12-18_10h37.05.759,premce3DEU_ses-02_part-02_label-phase2,2020.1.2,MacIntel,60,right,0.804,3,0.096,0,147,147,130,1,stimuli/objects/pirateflag.jpg,left,old,291,,,,,,,,
,,,,,,,,3,2020-12-18_10h37.05.759,premce3DEU_ses-02_part-02_label-phase2,2020.1.2,MacIntel,60,right,0.829,2,0.098,0,148,148,71,1,stimuli/objects/tennisracket.jpg,right,new,232,,,,,,,,
,,,,,,,,3,2020-12-18_10h37.05.759,premce3DEU_ses-02_part-02_label-phase2,2020.1.2,MacIntel,60,left,1.218,4,0.241,0,149,149,153,1,stimuli/objects/fluorescentlightbulb.jpg,left,old,314,,,,,,,,
,,,,,,,,3,2020-12-18_10h37.05.759,premce3DEU_ses-02_part-02_label-phase2,2020.1.2,MacIntel,60,right,1.105,1,1.051,0,150,150,157,1,stimuli/objects/eagle.jpg,right,new,318,,,,,,,,
,,,,,,,,3,2020-12-18_10h37.05.759,premce3DEU_ses-02_part-02_label-phase2,2020.1.2,MacIntel,60,right,0.925,2,0.165,0,151,151,19,1,stimuli/objects/zipper.jpg,right,new,180,,,,,,,,
,,,,,,,,3,2020-12-18_10h37.05.759,premce3DEU_ses-02_part-02_label-phase2,2020.1.2,MacIntel,60,right,0.672,2,0.003,0,152,152,108,1,stimuli/objects/cork02.jpg,left,old,269,,,,,,,,
,,,,,,,,3,2020-12-18_10h37.05.759,premce3DEU_ses-02_part-02_label-phase2,2020.1.2,MacIntel,60,right,0.955,2,0.039,0,153,153,53,1,stimuli/objects/parachute.jpg,right,new,214,,,,,,,,
,,,,,,,,3,2020-12-18_10h37.05.759,premce3DEU_ses-02_part-02_label-phase2,2020.1.2,MacIntel,60,right,0.788,3,0.27,0,154,154,95,1,stimuli/objects/sealion.jpg,right,new,256,,,,,,,,
,,,,,,,,3,2020-12-18_10h37.05.759,premce3DEU_ses-02_part-02_label-phase2,2020.1.2,MacIntel,60,left,1.09,4,0.069,0,155,155,129,1,stimuli/objects/escalator.jpg,left,old,290,,,,,,,,
,,,,,,,,3,2020-12-18_10h37.05.759,premce3DEU_ses-02_part-02_label-phase2,2020.1.2,MacIntel,60,left,1.06,4,0.002,0,156,156,87,1,stimuli/objects/chipmunk.jpg,left,old,248,,,,,,,,
,,,,,,,,3,2020-12-18_10h37.05.759,premce3DEU_ses-02_part-02_label-phase2,2020.1.2,MacIntel,60,right,1.127,2,0.251,0,157,157,65,1,stimuli/objects/spacerover.jpg,right,new,226,,,,,,,,
,,,,,,,,3,2020-12-18_10h37.05.759,premce3DEU_ses-02_part-02_label-phase2,2020.1.2,MacIntel,60,right,0.887,3,0.661,0,158,158,12,1,stimuli/objects/musicsheet.jpg,right,new,173,,,,,,,,
,,,,,,,,3,2020-12-18_10h37.05.759,premce3DEU_ses-02_part-02_label-phase2,2020.1.2,MacIntel,60,left,0.988,4,0.229,0,159,159,112,1,stimuli/objects/hotdog.jpg,left,old,273,,,,,,,,
,,,,,,,,3,2020-12-18_10h37.05.759,premce3DEU_ses-02_part-02_label-phase2,2020.1.2,MacIntel,60,,,,,,,,,,,,,,space,33.416,0,0,0,1,1,ImagesforRecog2.csv
,,,,,,,,3,2020-12-18_10h37.05.759,premce3DEU_ses-02_part-02_label-phase2,2020.1.2,MacIntel,60,left,1.807,3,1.485,0,0,0,133,1,stimuli/objects/sink.jpg,right,new,134,,,,,,,,
,,,,,,,,3,2020-12-18_10h37.05.759,premce3DEU_ses-02_part-02_label-phase2,2020.1.2,MacIntel,60,left,1.464,4,0.649,0,1,1,61,1,stimuli/objects/jokercard.jpg,left,old,62,,,,,,,,
,,,,,,,,3,2020-12-18_10h37.05.759,premce3DEU_ses-02_part-02_label-phase2,2020.1.2,MacIntel,60,right,0.801,1,0.28,0,2,2,144,1,stimuli/objects/trombone.jpg,left,old,145,,,,,,,,
,,,,,,,,3,2020-12-18_10h37.05.759,premce3DEU_ses-02_part-02_label-phase2,2020.1.2,MacIntel,60,left,2.421,4,0.294,0,3,3,95,1,stimuli/objects/scalpel.jpg,left,old,96,,,,,,,,
,,,,,,,,3,2020-12-18_10h37.05.759,premce3DEU_ses-02_part-02_label-phase2,2020.1.2,MacIntel,60,right,0.846,2,0.233,0,4,4,39,1,stimuli/objects/electrictoothbrush01c.jpg,right,new,40,,,,,,,,
,,,,,,,,3,2020-12-18_10h37.05.759,premce3DEU_ses-02_part-02_label-phase2,2020.1.2,MacIntel,60,left,1.094,4,0.002,0,5,5,137,1,stimuli/objects/brownsugar.jpg,left,old,138,,,,,,,,
,,,,,,,,3,2020-12-18_10h37.05.759,premce3DEU_ses-02_part-02_label-phase2,2020.1.2,MacIntel,60,left,1.165,3,0.002,0,6,6,151,1,stimuli/objects/contactlens.jpg,left,old,152,,,,,,,,
,,,,,,,,3,2020-12-18_10h37.05.759,premce3DEU_ses-02_part-02_label-phase2,2020.1.2,MacIntel,60,right,0.715,2,0.88,0,7,7,150,1,stimuli/objects/eiffeltower.jpg,right,new,151,,,,,,,,
,,,,,,,,3,2020-12-18_10h37.05.759,premce3DEU_ses-02_part-02_label-phase2,2020.1.2,MacIntel,60,left,1.298,3,0.536,0,8,8,79,1,stimuli/objects/callbell.jpg,left,old,80,,,,,,,,
,,,,,,,,3,2020-12-18_10h37.05.759,premce3DEU_ses-02_part-02_label-phase2,2020.1.2,MacIntel,60,right,0.762,1,0.432,0,9,9,113,1,stimuli/objects/shoppingcart.jpg,right,new,114,,,,,,,,
,,,,,,,,3,2020-12-18_10h37.05.759,premce3DEU_ses-02_part-02_label-phase2,2020.1.2,MacIntel,60,right,1.911,2,0.145,0,10,10,109,1,stimuli/objects/webcam.jpg,right,new,110,,,,,,,,
,,,,,,,,3,2020-12-18_10h37.05.759,premce3DEU_ses-02_part-02_label-phase2,2020.1.2,MacIntel,60,right,0.826,2,0.213,0,11,11,14,1,stimuli/objects/canoepaddle02.jpg,left,old,15,,,,,,,,
,,,,,,,,3,2020-12-18_10h37.05.759,premce3DEU_ses-02_part-02_label-phase2,2020.1.2,MacIntel,60,left,0.778,4,0.002,0,12,12,123,1,stimuli/objects/lintroller.jpg,left,old,124,,,,,,,,
,,,,,,,,3,2020-12-18_10h37.05.759,premce3DEU_ses-02_part-02_label-phase2,2020.1.2,MacIntel,60,left,1.144,4,0.57,0,13,13,153,1,stimuli/objects/coffeemachine.jpg,left,old,154,,,,,,,,
,,,,,,,,3,2020-12-18_10h37.05.759,premce3DEU_ses-02_part-02_label-phase2,2020.1.2,MacIntel,60,right,0.908,1,0.378,0,14,14,36,1,stimuli/objects/christmaslights.jpg,left,old,37,,,,,,,,
,,,,,,,,3,2020-12-18_10h37.05.759,premce3DEU_ses-02_part-02_label-phase2,2020.1.2,MacIntel,60,right,0.891,1,0.4,0,15,15,29,1,stimuli/objects/snowman.jpg,left,old,30,,,,,,,,
,,,,,,,,3,2020-12-18_10h37.05.759,premce3DEU_ses-02_part-02_label-phase2,2020.1.2,MacIntel,60,right,1.185,1,0.35,0,16,16,74,1,stimuli/objects/windturbine.jpg,left,old,75,,,,,,,,
,,,,,,,,3,2020-12-18_10h37.05.759,premce3DEU_ses-02_part-02_label-phase2,2020.1.2,MacIntel,60,right,0.812,2,0.385,0,17,17,60,1,stimuli/objects/banjo.jpg,right,new,61,,,,,,,,
,,,,,,,,3,2020-12-18_10h37.05.759,premce3DEU_ses-02_part-02_label-phase2,2020.1.2,MacIntel,60,right,1.143,3,0.068,0,18,18,140,1,stimuli/objects/exitsign.jpg,left,old,141,,,,,,,,
,,,,,,,,3,2020-12-18_10h37.05.759,premce3DEU_ses-02_part-02_label-phase2,2020.1.2,MacIntel,60,left,1.745,2,0.384,0,19,19,121,1,stimuli/objects/riverotter.jpg,right,new,122,,,,,,,,
,,,,,,,,3,2020-12-18_10h37.05.759,premce3DEU_ses-02_part-02_label-phase2,2020.1.2,MacIntel,60,right,0.85,2,0.623,0,20,20,2,1,stimuli/objects/table01.jpg,left,old,3,,,,,,,,
,,,,,,,,3,2020-12-18_10h37.05.759,premce3DEU_ses-02_part-02_label-phase2,2020.1.2,MacIntel,60,right,0.92,3,0.278,0,21,21,112,1,stimuli/objects/tank.jpg,right,new,113,,,,,,,,
,,,,,,,,3,2020-12-18_10h37.05.759,premce3DEU_ses-02_part-02_label-phase2,2020.1.2,MacIntel,60,right,0.817,2,0.702,0,22,22,149,1,stimuli/objects/dolly01.jpg,right,new,150,,,,,,,,
,,,,,,,,3,2020-12-18_10h37.05.759,premce3DEU_ses-02_part-02_label-phase2,2020.1.2,MacIntel,60,right,0.862,2,0.18,0,23,23,1,1,stimuli/objects/pooltable.jpg,right,new,2,,,,,,,,
,,,,,,,,3,2020-12-18_10h37.05.759,premce3DEU_ses-02_part-02_label-phase2,2020.1.2,MacIntel,60,right,0.723,2,0.203,0,24,24,18,1,stimuli/objects/pingpongtable.jpg,right,new,19,,,,,,,,
,,,,,,,,3,2020-12-18_10h37.05.759,premce3DEU_ses-02_part-02_label-phase2,2020.1.2,MacIntel,60,right,1.26,1,0.22,0,25,25,31,1,stimuli/objects/file.jpg,left,old,32,,,,,,,,
,,,,,,,,3,2020-12-18_10h37.05.759,premce3DEU_ses-02_part-02_label-phase2,2020.1.2,MacIntel,60,left,0.703,3,0.784,0,26,26,48,1,stimuli/objects/bowlingpin.jpg,left,old,49,,,,,,,,
,,,,,,,,3,2020-12-18_10h37.05.759,premce3DEU_ses-02_part-02_label-phase2,2020.1.2,MacIntel,60,right,1.035,1,0.364,0,27,27,11,1,stimuli/objects/cannon.jpg,left,old,12,,,,,,,,
,,,,,,,,3,2020-12-18_10h37.05.759,premce3DEU_ses-02_part-02_label-phase2,2020.1.2,MacIntel,60,right,1.074,3,0.403,0,28,28,43,1,stimuli/objects/ostrich.jpg,right,new,44,,,,,,,,
,,,,,,,,3,2020-12-18_10h37.05.759,premce3DEU_ses-02_part-02_label-phase2,2020.1.2,MacIntel,60,right,0.69,2,0.172,0,29,29,110,1,stimuli/objects/foosballtable.jpg,right,new,111,,,,,,,,
,,,,,,,,3,2020-12-18_10h37.05.759,premce3DEU_ses-02_part-02_label-phase2,2020.1.2,MacIntel,60,right,0.979,2,0.002,0,30,30,26,1,stimuli/objects/sledgehammer.jpg,right,new,27,,,,,,,,
,,,,,,,,3,2020-12-18_10h37.05.759,premce3DEU_ses-02_part-02_label-phase2,2020.1.2,MacIntel,60,right,0.834,2,0.013,0,31,31,125,1,stimuli/objects/freezer02.jpg,right,new,126,,,,,,,,
,,,,,,,,3,2020-12-18_10h37.05.759,premce3DEU_ses-02_part-02_label-phase2,2020.1.2,MacIntel,60,right,0.989,3,0.395,0,32,32,38,1,stimuli/objects/pig.jpg,right,new,39,,,,,,,,
,,,,,,,,3,2020-12-18_10h37.05.759,premce3DEU_ses-02_part-02_label-phase2,2020.1.2,MacIntel,60,left,1.109,4,0.049,0,33,33,44,1,stimuli/objects/artichoke01b.jpg,left,old,45,,,,,,,,
,,,,,,,,3,2020-12-18_10h37.05.759,premce3DEU_ses-02_part-02_label-phase2,2020.1.2,MacIntel,60,left,1.226,2,0.011,0,34,34,69,1,stimuli/objects/granolabar01.jpg,left,old,70,,,,,,,,
,,,,,,,,3,2020-12-18_10h37.05.759,premce3DEU_ses-02_part-02_label-phase2,2020.1.2,MacIntel,60,right,0.857,4,0.465,0,35,35,76,1,stimuli/objects/morningstar.jpg,right,new,77,,,,,,,,
,,,,,,,,3,2020-12-18_10h37.05.759,premce3DEU_ses-02_part-02_label-phase2,2020.1.2,MacIntel,60,left,1.072,4,0.056,0,36,36,68,1,stimuli/objects/cuttlefish.jpg,left,old,69,,,,,,,,
,,,,,,,,3,2020-12-18_10h37.05.759,premce3DEU_ses-02_part-02_label-phase2,2020.1.2,MacIntel,60,left,0.929,2,0.935,0,37,37,146,1,stimuli/objects/ant.jpg,right,new,147,,,,,,,,
,,,,,,,,3,2020-12-18_10h37.05.759,premce3DEU_ses-02_part-02_label-phase2,2020.1.2,MacIntel,60,right,0.851,3,1.173,0,38,38,71,1,stimuli/objects/bed.jpg,right,new,72,,,,,,,,
,,,,,,,,3,2020-12-18_10h37.05.759,premce3DEU_ses-02_part-02_label-phase2,2020.1.2,MacIntel,60,right,1.003,1,0.16,0,39,39,47,1,stimuli/objects/stepladder.jpg,left,old,48,,,,,,,,
,,,,,,,,3,2020-12-18_10h37.05.759,premce3DEU_ses-02_part-02_label-phase2,2020.1.2,MacIntel,60,right,1.808,2,0.696,0,40,40,111,1,stimuli/objects/platypus.jpg,right,new,112,,,,,,,,
,,,,,,,,3,2020-12-18_10h37.05.759,premce3DEU_ses-02_part-02_label-phase2,2020.1.2,MacIntel,60,right,0.821,3,0.126,0,41,41,57,1,stimuli/objects/cupcake.jpg,right,new,58,,,,,,,,
,,,,,,,,3,2020-12-18_10h37.05.759,premce3DEU_ses-02_part-02_label-phase2,2020.1.2,MacIntel,60,right,0.84,3,0.002,0,42,42,82,1,stimuli/objects/crown.jpg,left,old,83,,,,,,,,
,,,,,,,,3,2020-12-18_10h37.05.759,premce3DEU_ses-02_part-02_label-phase2,2020.1.2,MacIntel,60,left,0.965,4,0.002,0,43,43,64,1,stimuli/objects/dalmatian.jpg,left,old,65,,,,,,,,
,,,,,,,,3,2020-12-18_10h37.05.759,premce3DEU_ses-02_part-02_label-phase2,2020.1.2,MacIntel,60,right,0.812,3,0.118,0,44,44,98,1,stimuli/objects/handbrush02.jpg,left,old,99,,,,,,,,
,,,,,,,,3,2020-12-18_10h37.05.759,premce3DEU_ses-02_part-02_label-phase2,2020.1.2,MacIntel,60,right,1.34,1,0.226,0,45,45,50,1,stimuli/objects/lionstatue.jpg,left,old,51,,,,,,,,
,,,,,,,,3,2020-12-18_10h37.05.759,premce3DEU_ses-02_part-02_label-phase2,2020.1.2,MacIntel,60,right,0.954,3,0.211,0,46,46,100,1,stimuli/objects/macaroni01.jpg,right,new,101,,,,,,,,
,,,,,,,,3,2020-12-18_10h37.05.759,premce3DEU_ses-02_part-02_label-phase2,2020.1.2,MacIntel,60,left,0.955,4,0.002,0,47,47,28,1,stimuli/objects/seaturtle.jpg,left,old,29,,,,,,,,
,,,,,,,,3,2020-12-18_10h37.05.759,premce3DEU_ses-02_part-02_label-phase2,2020.1.2,MacIntel,60,right,0.784,2,0.002,0,48,48,94,1,stimuli/objects/dandelion.jpg,right,new,95,,,,,,,,
,,,,,,,,3,2020-12-18_10h37.05.759,premce3DEU_ses-02_part-02_label-phase2,2020.1.2,MacIntel,60,right,0.952,2,0.002,0,49,49,126,1,stimuli/objects/bat.jpg,right,new,127,,,,,,,,
,,,,,,,,3,2020-12-18_10h37.05.759,premce3DEU_ses-02_part-02_label-phase2,2020.1.2,MacIntel,60,right,0.697,2,0.002,0,50,50,8,1,stimuli/objects/englishcucumber.jpg,right,new,9,,,,,,,,
,,,,,,,,3,2020-12-18_10h37.05.759,premce3DEU_ses-02_part-02_label-phase2,2020.1.2,MacIntel,60,right,0.686,2,0.001,0,51,51,86,1,stimuli/objects/chimney.jpg,right,new,87,,,,,,,,
,,,,,,,,3,2020-12-18_10h37.05.759,premce3DEU_ses-02_part-02_label-phase2,2020.1.2,MacIntel,60,right,0.608,2,0.003,0,52,52,21,1,stimuli/objects/tire.jpg,right,new,22,,,,,,,,
,,,,,,,,3,2020-12-18_10h37.05.759,premce3DEU_ses-02_part-02_label-phase2,2020.1.2,MacIntel,60,right,0.82,2,0.002,0,53,53,4,1,stimuli/objects/skipole.jpg,right,new,5,,,,,,,,
,,,,,,,,3,2020-12-18_10h37.05.759,premce3DEU_ses-02_part-02_label-phase2,2020.1.2,MacIntel,60,right,0.569,2,0.001,0,54,54,145,1,stimuli/objects/church.jpg,right,new,146,,,,,,,,
,,,,,,,,3,2020-12-18_10h37.05.759,premce3DEU_ses-02_part-02_label-phase2,2020.1.2,MacIntel,60,left,1.008,4,0.097,0,55,55,34,1,stimuli/objects/aquarium.jpg,left,old,35,,,,,,,,
,,,,,,,,3,2020-12-18_10h37.05.759,premce3DEU_ses-02_part-02_label-phase2,2020.1.2,MacIntel,60,right,0.84,2,0.003,0,56,56,3,1,stimuli/objects/vacuumcleaner01.jpg,left,old,4,,,,,,,,
,,,,,,,,3,2020-12-18_10h37.05.759,premce3DEU_ses-02_part-02_label-phase2,2020.1.2,MacIntel,60,right,1.027,1,1.138,0,57,57,93,1,stimuli/objects/discoball.jpg,right,new,94,,,,,,,,
,,,,,,,,3,2020-12-18_10h37.05.759,premce3DEU_ses-02_part-02_label-phase2,2020.1.2,MacIntel,60,right,1.284,1,0.657,0,58,58,90,1,stimuli/objects/trailer.jpg,right,new,91,,,,,,,,
,,,,,,,,3,2020-12-18_10h37.05.759,premce3DEU_ses-02_part-02_label-phase2,2020.1.2,MacIntel,60,right,0.626,2,0.003,0,59,59,101,1,stimuli/objects/apron.jpg,left,old,102,,,,,,,,
,,,,,,,,3,2020-12-18_10h37.05.759,premce3DEU_ses-02_part-02_label-phase2,2020.1.2,MacIntel,60,left,1.166,1,0.01,0,60,60,159,1,stimuli/objects/stairs.jpg,right,new,160,,,,,,,,
,,,,,,,,3,2020-12-18_10h37.05.759,premce3DEU_ses-02_part-02_label-phase2,2020.1.2,MacIntel,60,left,0.942,1,0.06,0,61,61,97,1,stimuli/objects/dreamcatcher.jpg,left,old,98,,,,,,,,
,,,,,,,,3,2020-12-18_10h37.05.759,premce3DEU_ses-02_part-02_label-phase2,2020.1.2,MacIntel,60,right,0.869,3,0.367,0,62,62,20,1,stimuli/objects/accordion01.jpg,right,new,21,,,,,,,,
,,,,,,,,3,2020-12-18_10h37.05.759,premce3DEU_ses-02_part-02_label-phase2,2020.1.2,MacIntel,60,right,1.129,4,0.769,0,63,63,134,1,stimuli/objects/nunchuk.jpg,right,new,135,,,,,,,,
,,,,,,,,3,2020-12-18_10h37.05.759,premce3DEU_ses-02_part-02_label-phase2,2020.1.2,MacIntel,60,right,0.845,3,0.448,0,64,64,75,1,stimuli/objects/barn.jpg,left,old,76,,,,,,,,
,,,,,,,,3,2020-12-18_10h37.05.759,premce3DEU_ses-02_part-02_label-phase2,2020.1.2,MacIntel,60,left,0.879,1,0.276,0,65,65,107,1,stimuli/objects/musicstand.jpg,left,old,108,,,,,,,,
,,,,,,,,3,2020-12-18_10h37.05.759,premce3DEU_ses-02_part-02_label-phase2,2020.1.2,MacIntel,60,left,0.818,1,0.957,0,66,66,152,1,stimuli/objects/urinal.jpg,left,old,153,,,,,,,,
,,,,,,,,3,2020-12-18_10h37.05.759,premce3DEU_ses-02_part-02_label-phase2,2020.1.2,MacIntel,60,right,0.89,3,0.128,0,67,67,148,1,stimuli/objects/peacock.jpg,right,new,149,,,,,,,,
,,,,,,,,3,2020-12-18_10h37.05.759,premce3DEU_ses-02_part-02_label-phase2,2020.1.2,MacIntel,60,left,1.02,2,0.075,0,68,68,147,1,stimuli/objects/toiletbrush.jpg,right,new,148,,,,,,,,
,,,,,,,,3,2020-12-18_10h37.05.759,premce3DEU_ses-02_part-02_label-phase2,2020.1.2,MacIntel,60,left,2.003,1,0.506,0,69,69,32,1,stimuli/objects/moth.jpg,right,new,33,,,,,,,,
,,,,,,,,3,2020-12-18_10h37.05.759,premce3DEU_ses-02_part-02_label-phase2,2020.1.2,MacIntel,60,right,0.913,3,0.167,0,70,70,156,1,stimuli/objects/skateboard.jpg,left,old,157,,,,,,,,
,,,,,,,,3,2020-12-18_10h37.05.759,premce3DEU_ses-02_part-02_label-phase2,2020.1.2,MacIntel,60,right,1.155,2,0.117,0,71,71,66,1,stimuli/objects/shipinabottle.jpg,right,new,67,,,,,,,,
,,,,,,,,3,2020-12-18_10h37.05.759,premce3DEU_ses-02_part-02_label-phase2,2020.1.2,MacIntel,60,right,0.703,2,0.014,0,72,72,131,1,stimuli/objects/missile.jpg,right,new,132,,,,,,,,
,,,,,,,,3,2020-12-18_10h37.05.759,premce3DEU_ses-02_part-02_label-phase2,2020.1.2,MacIntel,60,right,0.806,2,0.577,0,73,73,25,1,stimuli/objects/honeycomb.jpg,right,new,26,,,,,,,,
,,,,,,,,3,2020-12-18_10h37.05.759,premce3DEU_ses-02_part-02_label-phase2,2020.1.2,MacIntel,60,right,0.961,2,0.002,0,74,74,41,1,stimuli/objects/faxmachine.jpg,right,new,42,,,,,,,,
,,,,,,,,3,2020-12-18_10h37.05.759,premce3DEU_ses-02_part-02_label-phase2,2020.1.2,MacIntel,60,right,0.606,2,0.757,0,75,75,136,1,stimuli/objects/wheat.jpg,right,new,137,,,,,,,,
,,,,,,,,3,2020-12-18_10h37.05.759,premce3DEU_ses-02_part-02_label-phase2,2020.1.2,MacIntel,60,left,1.211,1,0.086,0,76,76,65,1,stimuli/objects/weddingcake.jpg,left,old,66,,,,,,,,
,,,,,,,,3,2020-12-18_10h37.05.759,premce3DEU_ses-02_part-02_label-phase2,2020.1.2,MacIntel,60,right,0.879,2,0.158,0,77,77,30,1,stimuli/objects/fortunecookie.jpg,right,new,31,,,,,,,,
,,,,,,,,3,2020-12-18_10h37.05.759,premce3DEU_ses-02_part-02_label-phase2,2020.1.2,MacIntel,60,right,0.799,2,0.002,0,78,78,63,1,stimuli/objects/toasteroven.jpg,right,new,64,,,,,,,,
,,,,,,,,3,2020-12-18_10h37.05.759,premce3DEU_ses-02_part-02_label-phase2,2020.1.2,MacIntel,60,right,0.471,2,0.002,0,79,79,49,1,stimuli/objects/triangle.jpg,left,old,50,,,,,,,,
,,,,,,,,3,2020-12-18_10h37.05.759,premce3DEU_ses-02_part-02_label-phase2,2020.1.2,MacIntel,60,left,0.963,4,0.285,0,80,80,77,1,stimuli/objects/fishskeleton.jpg,left,old,78,,,,,,,,
,,,,,,,,3,2020-12-18_10h37.05.759,premce3DEU_ses-02_part-02_label-phase2,2020.1.2,MacIntel,60,left,0.948,2,0.183,0,81,81,142,1,stimuli/objects/giraffe.jpg,left,old,143,,,,,,,,
,,,,,,,,3,2020-12-18_10h37.05.759,premce3DEU_ses-02_part-02_label-phase2,2020.1.2,MacIntel,60,right,0.683,3,0.475,0,82,82,37,1,stimuli/objects/golfball.jpg,left,old,38,,,,,,,,
,,,,,,,,3,2020-12-18_10h37.05.759,premce3DEU_ses-02_part-02_label-phase2,2020.1.2,MacIntel,60,left,1.13,4,0.53,0,83,83,130,1,stimuli/objects/tulip02.jpg,left,old,131,,,,,,,,
,,,,,,,,3,2020-12-18_10h37.05.759,premce3DEU_ses-02_part-02_label-phase2,2020.1.2,MacIntel,60,left,1.094,2,0.201,0,84,84,33,1,stimuli/objects/caribou02.jpg,right,new,34,,,,,,,,
,,,,,,,,3,2020-12-18_10h37.05.759,premce3DEU_ses-02_part-02_label-phase2,2020.1.2,MacIntel,60,right,0.779,2,0.543,0,85,85,92,1,stimuli/objects/armchair02.jpg,right,new,93,,,,,,,,
,,,,,,,,3,2020-12-18_10h37.05.759,premce3DEU_ses-02_part-02_label-phase2,2020.1.2,MacIntel,60,left,0.807,4,0.081,0,86,86,84,1,stimuli/objects/winniethepooh.jpg,left,old,85,,,,,,,,
,,,,,,,,3,2020-12-18_10h37.05.759,premce3DEU_ses-02_part-02_label-phase2,2020.1.2,MacIntel,60,right,0.821,2,0.002,0,87,87,13,1,stimuli/objects/tower.jpg,right,new,14,,,,,,,,
,,,,,,,,3,2020-12-18_10h37.05.759,premce3DEU_ses-02_part-02_label-phase2,2020.1.2,MacIntel,60,left,1.137,1,0.215,0,88,88,105,1,stimuli/objects/gps.jpg,left,old,106,,,,,,,,
,,,,,,,,3,2020-12-18_10h37.05.759,premce3DEU_ses-02_part-02_label-phase2,2020.1.2,MacIntel,60,left,1.337,4,0.05,0,89,89,5,1,stimuli/objects/horse.jpg,left,old,6,,,,,,,,
,,,,,,,,3,2020-12-18_10h37.05.759,premce3DEU_ses-02_part-02_label-phase2,2020.1.2,MacIntel,60,right,0.649,2,0.247,0,90,90,89,1,stimuli/objects/bowlingball.jpg,right,new,90,,,,,,,,
,,,,,,,,3,2020-12-18_10h37.05.759,premce3DEU_ses-02_part-02_label-phase2,2020.1.2,MacIntel,60,left,0.986,1,0.098,0,91,91,62,1,stimuli/objects/trophy01.jpg,left,old,63,,,,,,,,
,,,,,,,,3,2020-12-18_10h37.05.759,premce3DEU_ses-02_part-02_label-phase2,2020.1.2,MacIntel,60,left,0.779,2,0.417,0,92,92,78,1,stimuli/objects/monarchbutterfly.jpg,left,old,79,,,,,,,,
,,,,,,,,3,2020-12-18_10h37.05.759,premce3DEU_ses-02_part-02_label-phase2,2020.1.2,MacIntel,60,left,1.169,1,0.215,0,93,93,103,1,stimuli/objects/salmon.jpg,left,old,104,,,,,,,,
,,,,,,,,3,2020-12-18_10h37.05.759,premce3DEU_ses-02_part-02_label-phase2,2020.1.2,MacIntel,60,left,0.973,4,0.001,0,94,94,108,1,stimuli/objects/communitymailbox.jpg,left,old,109,,,,,,,,
,,,,,,,,3,2020-12-18_10h37.05.759,premce3DEU_ses-02_part-02_label-phase2,2020.1.2,MacIntel,60,right,0.807,2,0.181,0,95,95,85,1,stimuli/objects/bridge.jpg,right,new,86,,,,,,,,
,,,,,,,,3,2020-12-18_10h37.05.759,premce3DEU_ses-02_part-02_label-phase2,2020.1.2,MacIntel,60,left,0.792,2,0.002,0,96,96,87,1,stimuli/objects/filingcabinet.jpg,left,old,88,,,,,,,,
,,,,,,,,3,2020-12-18_10h37.05.759,premce3DEU_ses-02_part-02_label-phase2,2020.1.2,MacIntel,60,right,0.648,4,0.401,0,97,97,72,1,stimuli/objects/totempole.jpg,right,new,73,,,,,,,,
,,,,,,,,3,2020-12-18_10h37.05.759,premce3DEU_ses-02_part-02_label-phase2,2020.1.2,MacIntel,60,left,0.768,1,0.747,0,98,98,53,1,stimuli/objects/honeybee.jpg,right,new,54,,,,,,,,
,,,,,,,,3,2020-12-18_10h37.05.759,premce3DEU_ses-02_part-02_label-phase2,2020.1.2,MacIntel,60,right,0.92,3,0.491,0,99,99,51,1,stimuli/objects/road02.jpg,right,new,52,,,,,,,,
,,,,,,,,3,2020-12-18_10h37.05.759,premce3DEU_ses-02_part-02_label-phase2,2020.1.2,MacIntel,60,left,0.793,3,0.412,0,100,100,83,1,stimuli/objects/flugglehorn.jpg,right,new,84,,,,,,,,
,,,,,,,,3,2020-12-18_10h37.05.759,premce3DEU_ses-02_part-02_label-phase2,2020.1.2,MacIntel,60,left,0.983,4,0.357,0,101,101,132,1,stimuli/objects/shower.jpg,left,old,133,,,,,,,,
,,,,,,,,3,2020-12-18_10h37.05.759,premce3DEU_ses-02_part-02_label-phase2,2020.1.2,MacIntel,60,right,1.766,2,0.002,0,102,102,10,1,stimuli/objects/tablesaw.jpg,right,new,11,,,,,,,,
,,,,,,,,3,2020-12-18_10h37.05.759,premce3DEU_ses-02_part-02_label-phase2,2020.1.2,MacIntel,60,right,1.283,4,0.632,0,103,103,155,1,stimuli/objects/calendar.jpg,right,new,156,,,,,,,,
,,,,,,,,3,2020-12-18_10h37.05.759,premce3DEU_ses-02_part-02_label-phase2,2020.1.2,MacIntel,60,left,0.871,4,0.117,0,104,104,40,1,stimuli/objects/cremebrulee.jpg,left,old,41,,,,,,,,
,,,,,,,,3,2020-12-18_10h37.05.759,premce3DEU_ses-02_part-02_label-phase2,2020.1.2,MacIntel,60,left,1.124,3,0.002,0,105,105,58,1,stimuli/objects/beaver.jpg,left,old,59,,,,,,,,
,,,,,,,,3,2020-12-18_10h37.05.759,premce3DEU_ses-02_part-02_label-phase2,2020.1.2,MacIntel,60,right,0.879,2,0.002,0,106,106,73,1,stimuli/objects/guitarcase.jpg,right,new,74,,,,,,,,
,,,,,,,,3,2020-12-18_10h37.05.759,premce3DEU_ses-02_part-02_label-phase2,2020.1.2,MacIntel,60,right,0.834,2,0.001,0,107,107,117,1,stimuli/objects/bull.jpg,right,new,118,,,,,,,,
,,,,,,,,3,2020-12-18_10h37.05.759,premce3DEU_ses-02_part-02_label-phase2,2020.1.2,MacIntel,60,right,0.537,2,0.002,0,108,108,19,1,stimuli/objects/crosscountryski.jpg,right,new,20,,,,,,,,
,,,,,,,,3,2020-12-18_10h37.05.759,premce3DEU_ses-02_part-02_label-phase2,2020.1.2,MacIntel,60,right,0.741,2,0.934,0,109,109,24,1,stimuli/objects/icecube02.jpg,right,new,25,,,,,,,,
,,,,,,,,3,2020-12-18_10h37.05.759,premce3DEU_ses-02_part-02_label-phase2,2020.1.2,MacIntel,60,left,0.78,4,0.001,0,110,110,6,1,stimuli/objects/pumpkin.jpg,left,old,7,,,,,,,,
,,,,,,,,3,2020-12-18_10h37.05.759,premce3DEU_ses-02_part-02_label-phase2,2020.1.2,MacIntel,60,right,0.756,2,0.002,0,111,111,106,1,stimuli/objects/helicopter.jpg,right,new,107,,,,,,,,
,,,,,,,,3,2020-12-18_10h37.05.759,premce3DEU_ses-02_part-02_label-phase2,2020.1.2,MacIntel,60,left,0.902,4,0.003,0,112,112,88,1,stimuli/objects/jackrabbit.jpg,left,old,89,,,,,,,,
,,,,,,,,3,2020-12-18_10h37.05.759,premce3DEU_ses-02_part-02_label-phase2,2020.1.2,MacIntel,60,right,0.894,1,0.455,0,113,113,9,1,stimuli/objects/rose.jpg,right,new,10,,,,,,,,
,,,,,,,,3,2020-12-18_10h37.05.759,premce3DEU_ses-02_part-02_label-phase2,2020.1.2,MacIntel,60,right,0.88,2,0.002,0,114,114,116,1,stimuli/objects/toucan.jpg,right,new,117,,,,,,,,
,,,,,,,,3,2020-12-18_10h37.05.759,premce3DEU_ses-02_part-02_label-phase2,2020.1.2,MacIntel,60,right,0.533,2,0.825,0,115,115,102,1,stimuli/objects/forklift.jpg,left,old,103,,,,,,,,
,,,,,,,,3,2020-12-18_10h37.05.759,premce3DEU_ses-02_part-02_label-phase2,2020.1.2,MacIntel,60,right,0.891,3,0.906,0,116,116,128,1,stimuli/objects/makiroll.jpg,right,new,129,,,,,,,,
,,,,,,,,3,2020-12-18_10h37.05.759,premce3DEU_ses-02_part-02_label-phase2,2020.1.2,MacIntel,60,left,0.937,4,0.095,0,117,117,7,1,stimuli/objects/redonion.jpg,left,old,8,,,,,,,,
,,,,,,,,3,2020-12-18_10h37.05.759,premce3DEU_ses-02_part-02_label-phase2,2020.1.2,MacIntel,60,right,0.93,4,0.411,0,118,118,138,1,stimuli/objects/cow.jpg,right,new,139,,,,,,,,
,,,,,,,,3,2020-12-18_10h37.05.759,premce3DEU_ses-02_part-02_label-phase2,2020.1.2,MacIntel,60,right,0.777,3,0.451,0,119,119,12,1,stimuli/objects/pigeon.jpg,right,new,13,,,,,,,,
,,,,,,,,3,2020-12-18_10h37.05.759,premce3DEU_ses-02_part-02_label-phase2,2020.1.2,MacIntel,60,right,0.787,3,0.16,0,120,120,119,1,stimuli/objects/kite.jpg,right,new,120,,,,,,,,
,,,,,,,,3,2020-12-18_10h37.05.759,premce3DEU_ses-02_part-02_label-phase2,2020.1.2,MacIntel,60,right,0.786,2,0.002,0,121,121,27,1,stimuli/objects/coffeemaker.jpg,left,old,28,,,,,,,,
,,,,,,,,3,2020-12-18_10h37.05.759,premce3DEU_ses-02_part-02_label-phase2,2020.1.2,MacIntel,60,right,0.703,2,0.053,0,122,122,35,1,stimuli/objects/skihelmet01.jpg,left,old,36,,,,,,,,
,,,,,,,,3,2020-12-18_10h37.05.759,premce3DEU_ses-02_part-02_label-phase2,2020.1.2,MacIntel,60,right,0.629,3,0.189,0,123,123,157,1,stimuli/objects/cookingpot.jpg,left,old,158,,,,,,,,
,,,,,,,,3,2020-12-18_10h37.05.759,premce3DEU_ses-02_part-02_label-phase2,2020.1.2,MacIntel,60,right,0.696,1,0.899,0,124,124,158,1,stimuli/objects/watercooler.jpg,right,new,159,,,,,,,,
,,,,,,,,3,2020-12-18_10h37.05.759,premce3DEU_ses-02_part-02_label-phase2,2020.1.2,MacIntel,60,right,0.805,2,0.002,0,125,125,143,1,stimuli/objects/faucet.jpg,right,new,144,,,,,,,,
,,,,,,,,3,2020-12-18_10h37.05.759,premce3DEU_ses-02_part-02_label-phase2,2020.1.2,MacIntel,60,right,0.779,3,0.731,0,126,126,23,1,stimuli/objects/lollipop04.jpg,right,new,24,,,,,,,,
,,,,,,,,3,2020-12-18_10h37.05.759,premce3DEU_ses-02_part-02_label-phase2,2020.1.2,MacIntel,60,right,0.624,2,0.368,0,127,127,59,1,stimuli/objects/birdhouse.jpg,right,new,60,,,,,,,,
,,,,,,,,3,2020-12-18_10h37.05.759,premce3DEU_ses-02_part-02_label-phase2,2020.1.2,MacIntel,60,right,0.492,2,0.002,0,128,128,96,1,stimuli/objects/awning.jpg,right,new,97,,,,,,,,
,,,,,,,,3,2020-12-18_10h37.05.759,premce3DEU_ses-02_part-02_label-phase2,2020.1.2,MacIntel,60,right,0.557,3,0.064,0,129,129,115,1,stimuli/objects/lantern03.jpg,left,old,116,,,,,,,,
,,,,,,,,3,2020-12-18_10h37.05.759,premce3DEU_ses-02_part-02_label-phase2,2020.1.2,MacIntel,60,right,1.383,3,0.002,0,130,130,52,1,stimuli/objects/turkey.jpg,right,new,53,,,,,,,,
,,,,,,,,3,2020-12-18_10h37.05.759,premce3DEU_ses-02_part-02_label-phase2,2020.1.2,MacIntel,60,right,0.94,3,0.202,0,131,131,99,1,stimuli/objects/waterfountain02.jpg,left,old,100,,,,,,,,
,,,,,,,,3,2020-12-18_10h37.05.759,premce3DEU_ses-02_part-02_label-phase2,2020.1.2,MacIntel,60,right,0.545,3,0.001,0,132,132,122,1,stimuli/objects/soccerball.jpg,left,old,123,,,,,,,,
,,,,,,,,3,2020-12-18_10h37.05.759,premce3DEU_ses-02_part-02_label-phase2,2020.1.2,MacIntel,60,right,0.561,3,0.487,0,133,133,55,1,stimuli/objects/drumstick.jpg,right,new,56,,,,,,,,
,,,,,,,,3,2020-12-18_10h37.05.759,premce3DEU_ses-02_part-02_label-phase2,2020.1.2,MacIntel,60,right,0.586,2,0.015,0,134,134,17,1,stimuli/objects/parkingmeter.jpg,right,new,18,,,,,,,,
,,,,,,,,3,2020-12-18_10h37.05.759,premce3DEU_ses-02_part-02_label-phase2,2020.1.2,MacIntel,60,right,0.552,2,0.123,0,135,135,91,1,stimuli/objects/eyepatch.jpg,left,old,92,,,,,,,,
,,,,,,,,3,2020-12-18_10h37.05.759,premce3DEU_ses-02_part-02_label-phase2,2020.1.2,MacIntel,60,right,2.207,2,0.575,0,136,136,54,1,stimuli/objects/toynutcracker.jpg,right,new,55,,,,,,,,
,,,,,,,,3,2020-12-18_10h37.05.759,premce3DEU_ses-02_part-02_label-phase2,2020.1.2,MacIntel,60,right,0.838,2,0.351,0,137,137,118,1,stimuli/objects/microwave.jpg,left,old,119,,,,,,,,
,,,,,,,,3,2020-12-18_10h37.05.759,premce3DEU_ses-02_part-02_label-phase2,2020.1.2,MacIntel,60,left,0.89,4,0.593,0,138,138,16,1,stimuli/objects/cactus.jpg,left,old,17,,,,,,,,
,,,,,,,,3,2020-12-18_10h37.05.759,premce3DEU_ses-02_part-02_label-phase2,2020.1.2,MacIntel,60,right,0.836,2,0.547,0,139,139,154,1,stimuli/objects/curtain.jpg,right,new,155,,,,,,,,
,,,,,,,,3,2020-12-18_10h37.05.759,premce3DEU_ses-02_part-02_label-phase2,2020.1.2,MacIntel,60,right,0.831,2,0.281,0,140,140,46,1,stimuli/objects/entrancegate.jpg,right,new,47,,,,,,,,
,,,,,,,,3,2020-12-18_10h37.05.759,premce3DEU_ses-02_part-02_label-phase2,2020.1.2,MacIntel,60,right,1.086,2,0.002,0,141,141,70,1,stimuli/objects/balcony02.jpg,left,old,71,,,,,,,,
,,,,,,,,3,2020-12-18_10h37.05.759,premce3DEU_ses-02_part-02_label-phase2,2020.1.2,MacIntel,60,right,0.583,2,0.002,0,142,142,45,1,stimuli/objects/fridge.jpg,left,old,46,,,,,,,,
,,,,,,,,3,2020-12-18_10h37.05.759,premce3DEU_ses-02_part-02_label-phase2,2020.1.2,MacIntel,60,left,1.102,3,0.002,0,143,143,104,1,stimuli/objects/porcupine.jpg,left,old,105,,,,,,,,
,,,,,,,,3,2020-12-18_10h37.05.759,premce3DEU_ses-02_part-02_label-phase2,2020.1.2,MacIntel,60,left,1.165,3,0.128,0,144,144,0,1,stimuli/objects/treestump.jpg,left,old,1,,,,,,,,
,,,,,,,,3,2020-12-18_10h37.05.759,premce3DEU_ses-02_part-02_label-phase2,2020.1.2,MacIntel,60,right,1.022,2,0.934,0,145,145,22,1,stimuli/objects/paperairplane.jpg,right,new,23,,,,,,,,
,,,,,,,,3,2020-12-18_10h37.05.759,premce3DEU_ses-02_part-02_label-phase2,2020.1.2,MacIntel,60,right,0.952,2,0.102,0,146,146,81,1,stimuli/objects/lighthouse.jpg,right,new,82,,,,,,,,
,,,,,,,,3,2020-12-18_10h37.05.759,premce3DEU_ses-02_part-02_label-phase2,2020.1.2,MacIntel,60,right,0.789,2,0.267,0,147,147,127,1,stimuli/objects/sausage.jpg,left,old,128,,,,,,,,
,,,,,,,,3,2020-12-18_10h37.05.759,premce3DEU_ses-02_part-02_label-phase2,2020.1.2,MacIntel,60,right,0.591,2,0.002,0,148,148,141,1,stimuli/objects/stroller.jpg,right,new,142,,,,,,,,
,,,,,,,,3,2020-12-18_10h37.05.759,premce3DEU_ses-02_part-02_label-phase2,2020.1.2,MacIntel,60,left,0.928,4,0.036,0,149,149,120,1,stimuli/objects/panda.jpg,left,old,121,,,,,,,,
,,,,,,,,3,2020-12-18_10h37.05.759,premce3DEU_ses-02_part-02_label-phase2,2020.1.2,MacIntel,60,left,0.86,4,0.214,0,150,150,114,1,stimuli/objects/star.jpg,left,old,115,,,,,,,,
,,,,,,,,3,2020-12-18_10h37.05.759,premce3DEU_ses-02_part-02_label-phase2,2020.1.2,MacIntel,60,right,0.662,2,0.28,0,151,151,124,1,stimuli/objects/handheldtelescope.jpg,left,old,125,,,,,,,,
,,,,,,,,3,2020-12-18_10h37.05.759,premce3DEU_ses-02_part-02_label-phase2,2020.1.2,MacIntel,60,right,0.616,2,0.645,0,152,152,56,1,stimuli/objects/jeans01.jpg,left,old,57,,,,,,,,
,,,,,,,,3,2020-12-18_10h37.05.759,premce3DEU_ses-02_part-02_label-phase2,2020.1.2,MacIntel,60,right,0.647,2,0.001,0,153,153,135,1,stimuli/objects/basketball01.jpg,left,old,136,,,,,,,,
,,,,,,,,3,2020-12-18_10h37.05.759,premce3DEU_ses-02_part-02_label-phase2,2020.1.2,MacIntel,60,right,0.478,2,0.001,0,154,154,67,1,stimuli/objects/volleyball.jpg,left,old,68,,,,,,,,
,,,,,,,,3,2020-12-18_10h37.05.759,premce3DEU_ses-02_part-02_label-phase2,2020.1.2,MacIntel,60,right,0.627,2,0.002,0,155,155,129,1,stimuli/objects/lawnmower.jpg,right,new,130,,,,,,,,
,,,,,,,,3,2020-12-18_10h37.05.759,premce3DEU_ses-02_part-02_label-phase2,2020.1.2,MacIntel,60,right,0.756,2,0.002,0,156,156,42,1,stimuli/objects/snowshoe.jpg,right,new,43,,,,,,,,
,,,,,,,,3,2020-12-18_10h37.05.759,premce3DEU_ses-02_part-02_label-phase2,2020.1.2,MacIntel,60,left,0.821,3,0.002,0,157,157,15,1,stimuli/objects/dromedary.jpg,left,old,16,,,,,,,,
,,,,,,,,3,2020-12-18_10h37.05.759,premce3DEU_ses-02_part-02_label-phase2,2020.1.2,MacIntel,60,right,0.819,3,0.531,0,158,158,80,1,stimuli/objects/tree.jpg,right,new,81,,,,,,,,
,,,,,,,,3,2020-12-18_10h37.05.759,premce3DEU_ses-02_part-02_label-phase2,2020.1.2,MacIntel,60,right,0.7,3,0.004,0,159,159,139,1,stimuli/objects/safe.jpg,right,new,140,,,,,,,,
,,,,,,,,3,2020-12-18_10h37.05.759,premce3DEU_ses-02_part-02_label-phase2,2020.1.2,MacIntel,60,,,,,,,,,,,,,,space,1.524,0,1,1,0,1,ImagesforRecog1.csv
