instructions_loop.thisRepN,instructions_loop.thisTrialN,instructions_loop.thisN,instructions_loop.thisIndex,instructions_loop.ran,text1,text2,text3,participant,date,expName,psychopyVersion,OS,frameRate,recog_resp.keys,recog_resp.rt,conf_resp.keys,conf_resp.rt,recog_loop.thisRepN,recog_loop.thisTrialN,recog_loop.thisN,recog_loop.thisIndex,recog_loop.ran,images,corr_ans,type,order,key_resp_break.keys,key_resp_break.rt,list_loop.thisRepN,list_loop.thisTrialN,list_loop.thisN,list_loop.thisIndex,list_loop.ran,recog_list
0,0,0,0,1,Willkommen zum letzten Teil des Experiments!,,Mit der LEERTASTE kannst du mit der Aufgabe fortfahren.,4,2020-12-18_15h26.07.356,premce3DEU_ses-02_part-02_label-phase2,2020.1.2,Win32,60,,,,,,,,,,,,,,,,,,,,,
0,1,1,1,1,,"Jetzt werden wir dir einige Bilder zeigen.

Bitte gib zu jedem Bild an, ob du du es im Verlauf des Experiments gesehen hast.

Drücke die LINKE PFEILTASTE für JA
Drücke die RECHTE PFEILTASTE für NEIN

",Mit der LEERTASTE kannst du mit der Aufgabe fortfahren.,4,2020-12-18_15h26.07.356,premce3DEU_ses-02_part-02_label-phase2,2020.1.2,Win32,60,,,,,,,,,,,,,,,,,,,,,
0,2,2,2,1,,"Anschließend bitten wir dich anzugeben wie sicher du dir bei deiner Wahl bist.

Bitte nutze die Zifferntasten von 1 bis 4 am oberen Ende deiner Tastatur um anzugeben, wie sicher du dir bei deiner Antwort bist.

Die Zahlen stehen für

1 = Sehr unsicher
2 = Unsicher
3 = Sicher
4 = Sehr sicher",Mit der LEERTASTE kannst du mit der Aufgabe fortfahren.,4,2020-12-18_15h26.07.356,premce3DEU_ses-02_part-02_label-phase2,2020.1.2,Win32,60,,,,,,,,,,,,,,,,,,,,,
,,,,,,,,4,2020-12-18_15h26.07.356,premce3DEU_ses-02_part-02_label-phase2,2020.1.2,Win32,60,right,1.32667,2,1.178425,0,0,0,143,1,stimuli/objects/faucet.jpg,right,new,144,,,,,,,,
,,,,,,,,4,2020-12-18_15h26.07.356,premce3DEU_ses-02_part-02_label-phase2,2020.1.2,Win32,60,right,1.27684,2,0.83873,0,1,1,26,1,stimuli/objects/sledgehammer.jpg,right,new,27,,,,,,,,
,,,,,,,,4,2020-12-18_15h26.07.356,premce3DEU_ses-02_part-02_label-phase2,2020.1.2,Win32,60,right,0.890045,2,0.325565,0,2,2,97,1,stimuli/objects/dreamcatcher.jpg,left,old,98,,,,,,,,
,,,,,,,,4,2020-12-18_15h26.07.356,premce3DEU_ses-02_part-02_label-phase2,2020.1.2,Win32,60,right,1.035385,2,0.29475,0,3,3,70,1,stimuli/objects/balcony02.jpg,left,old,71,,,,,,,,
,,,,,,,,4,2020-12-18_15h26.07.356,premce3DEU_ses-02_part-02_label-phase2,2020.1.2,Win32,60,right,0.76873,2,0.29371,0,4,4,151,1,stimuli/objects/contactlens.jpg,left,old,152,,,,,,,,
,,,,,,,,4,2020-12-18_15h26.07.356,premce3DEU_ses-02_part-02_label-phase2,2020.1.2,Win32,60,right,0.73439,3,1.065725,0,5,5,9,1,stimuli/objects/rose.jpg,right,new,10,,,,,,,,
,,,,,,,,4,2020-12-18_15h26.07.356,premce3DEU_ses-02_part-02_label-phase2,2020.1.2,Win32,60,left,1.10689,4,0.0011,0,6,6,5,1,stimuli/objects/horse.jpg,left,old,6,,,,,,,,
,,,,,,,,4,2020-12-18_15h26.07.356,premce3DEU_ses-02_part-02_label-phase2,2020.1.2,Win32,60,right,1.01368,2,1.54881,0,7,7,50,1,stimuli/objects/lionstatue.jpg,left,old,51,,,,,,,,
,,,,,,,,4,2020-12-18_15h26.07.356,premce3DEU_ses-02_part-02_label-phase2,2020.1.2,Win32,60,left,1.07883,3,1.059445,0,8,8,127,1,stimuli/objects/sausage.jpg,left,old,128,,,,,,,,
,,,,,,,,4,2020-12-18_15h26.07.356,premce3DEU_ses-02_part-02_label-phase2,2020.1.2,Win32,60,left,1.774605,3,0.71528,0,9,9,15,1,stimuli/objects/dromedary.jpg,left,old,16,,,,,,,,
,,,,,,,,4,2020-12-18_15h26.07.356,premce3DEU_ses-02_part-02_label-phase2,2020.1.2,Win32,60,right,0.717205,1,0.422395,0,10,10,13,1,stimuli/objects/tower.jpg,right,new,14,,,,,,,,
,,,,,,,,4,2020-12-18_15h26.07.356,premce3DEU_ses-02_part-02_label-phase2,2020.1.2,Win32,60,left,1.4541,3,0.116255,0,11,11,78,1,stimuli/objects/monarchbutterfly.jpg,left,old,79,,,,,,,,
,,,,,,,,4,2020-12-18_15h26.07.356,premce3DEU_ses-02_part-02_label-phase2,2020.1.2,Win32,60,right,1.84351,1,0.842095,0,12,12,89,1,stimuli/objects/bowlingball.jpg,right,new,90,,,,,,,,
,,,,,,,,4,2020-12-18_15h26.07.356,premce3DEU_ses-02_part-02_label-phase2,2020.1.2,Win32,60,right,2.296495,2,0.138745,0,13,13,129,1,stimuli/objects/lawnmower.jpg,right,new,130,,,,,,,,
,,,,,,,,4,2020-12-18_15h26.07.356,premce3DEU_ses-02_part-02_label-phase2,2020.1.2,Win32,60,right,1.14829,1,0.01421,0,14,14,25,1,stimuli/objects/honeycomb.jpg,right,new,26,,,,,,,,
,,,,,,,,4,2020-12-18_15h26.07.356,premce3DEU_ses-02_part-02_label-phase2,2020.1.2,Win32,60,right,1.225055,1,0.70352,0,15,15,53,1,stimuli/objects/honeybee.jpg,right,new,54,,,,,,,,
,,,,,,,,4,2020-12-18_15h26.07.356,premce3DEU_ses-02_part-02_label-phase2,2020.1.2,Win32,60,right,1.1016,2,0.088545,0,16,16,149,1,stimuli/objects/dolly01.jpg,right,new,150,,,,,,,,
,,,,,,,,4,2020-12-18_15h26.07.356,premce3DEU_ses-02_part-02_label-phase2,2020.1.2,Win32,60,left,2.12236,2,0.907215,0,17,17,67,1,stimuli/objects/volleyball.jpg,left,old,68,,,,,,,,
,,,,,,,,4,2020-12-18_15h26.07.356,premce3DEU_ses-02_part-02_label-phase2,2020.1.2,Win32,60,right,1.232145,3,0.28347,0,18,18,46,1,stimuli/objects/entrancegate.jpg,right,new,47,,,,,,,,
,,,,,,,,4,2020-12-18_15h26.07.356,premce3DEU_ses-02_part-02_label-phase2,2020.1.2,Win32,60,right,1.527095,1,2.23447,0,19,19,76,1,stimuli/objects/morningstar.jpg,right,new,77,,,,,,,,
,,,,,,,,4,2020-12-18_15h26.07.356,premce3DEU_ses-02_part-02_label-phase2,2020.1.2,Win32,60,left,0.992335,4,0.544015,0,20,20,44,1,stimuli/objects/artichoke01b.jpg,left,old,45,,,,,,,,
,,,,,,,,4,2020-12-18_15h26.07.356,premce3DEU_ses-02_part-02_label-phase2,2020.1.2,Win32,60,right,1.86494,1,1.80742,0,21,21,159,1,stimuli/objects/stairs.jpg,right,new,160,,,,,,,,
,,,,,,,,4,2020-12-18_15h26.07.356,premce3DEU_ses-02_part-02_label-phase2,2020.1.2,Win32,60,left,1.071065,3,0.006085,0,22,22,150,1,stimuli/objects/eiffeltower.jpg,right,new,151,,,,,,,,
,,,,,,,,4,2020-12-18_15h26.07.356,premce3DEU_ses-02_part-02_label-phase2,2020.1.2,Win32,60,right,0.706395,2,0.517705,0,23,23,62,1,stimuli/objects/trophy01.jpg,left,old,63,,,,,,,,
,,,,,,,,4,2020-12-18_15h26.07.356,premce3DEU_ses-02_part-02_label-phase2,2020.1.2,Win32,60,left,0.947985,4,0.440805,0,24,24,49,1,stimuli/objects/triangle.jpg,left,old,50,,,,,,,,
,,,,,,,,4,2020-12-18_15h26.07.356,premce3DEU_ses-02_part-02_label-phase2,2020.1.2,Win32,60,right,1.598085,2,0.091095,0,25,25,4,1,stimuli/objects/skipole.jpg,right,new,5,,,,,,,,
,,,,,,,,4,2020-12-18_15h26.07.356,premce3DEU_ses-02_part-02_label-phase2,2020.1.2,Win32,60,left,0.89545,4,0.44461,0,26,26,140,1,stimuli/objects/exitsign.jpg,left,old,141,,,,,,,,
,,,,,,,,4,2020-12-18_15h26.07.356,premce3DEU_ses-02_part-02_label-phase2,2020.1.2,Win32,60,right,1.19207,1,0.322785,0,27,27,82,1,stimuli/objects/crown.jpg,left,old,83,,,,,,,,
,,,,,,,,4,2020-12-18_15h26.07.356,premce3DEU_ses-02_part-02_label-phase2,2020.1.2,Win32,60,left,0.823105,4,0.327315,0,28,28,156,1,stimuli/objects/skateboard.jpg,left,old,157,,,,,,,,
,,,,,,,,4,2020-12-18_15h26.07.356,premce3DEU_ses-02_part-02_label-phase2,2020.1.2,Win32,60,left,0.749975,4,0.353625,0,29,29,88,1,stimuli/objects/jackrabbit.jpg,left,old,89,,,,,,,,
,,,,,,,,4,2020-12-18_15h26.07.356,premce3DEU_ses-02_part-02_label-phase2,2020.1.2,Win32,60,right,1.374465,2,0.40689,0,30,30,111,1,stimuli/objects/platypus.jpg,right,new,112,,,,,,,,
,,,,,,,,4,2020-12-18_15h26.07.356,premce3DEU_ses-02_part-02_label-phase2,2020.1.2,Win32,60,left,2.631965,3,0.840175,0,31,31,14,1,stimuli/objects/canoepaddle02.jpg,left,old,15,,,,,,,,
,,,,,,,,4,2020-12-18_15h26.07.356,premce3DEU_ses-02_part-02_label-phase2,2020.1.2,Win32,60,right,1.05403,1,0.11513,0,32,32,56,1,stimuli/objects/jeans01.jpg,left,old,57,,,,,,,,
,,,,,,,,4,2020-12-18_15h26.07.356,premce3DEU_ses-02_part-02_label-phase2,2020.1.2,Win32,60,left,0.711845,4,0.49305,0,33,33,98,1,stimuli/objects/handbrush02.jpg,left,old,99,,,,,,,,
,,,,,,,,4,2020-12-18_15h26.07.356,premce3DEU_ses-02_part-02_label-phase2,2020.1.2,Win32,60,left,1.491005,3,0.46478,0,34,34,32,1,stimuli/objects/moth.jpg,right,new,33,,,,,,,,
,,,,,,,,4,2020-12-18_15h26.07.356,premce3DEU_ses-02_part-02_label-phase2,2020.1.2,Win32,60,left,1.38528,3,0.01224,0,35,35,116,1,stimuli/objects/toucan.jpg,right,new,117,,,,,,,,
,,,,,,,,4,2020-12-18_15h26.07.356,premce3DEU_ses-02_part-02_label-phase2,2020.1.2,Win32,60,left,0.87435,3,0.33834,0,36,36,45,1,stimuli/objects/fridge.jpg,left,old,46,,,,,,,,
,,,,,,,,4,2020-12-18_15h26.07.356,premce3DEU_ses-02_part-02_label-phase2,2020.1.2,Win32,60,right,2.050845,2,0.23224,0,37,37,131,1,stimuli/objects/missile.jpg,right,new,132,,,,,,,,
,,,,,,,,4,2020-12-18_15h26.07.356,premce3DEU_ses-02_part-02_label-phase2,2020.1.2,Win32,60,left,1.25748,3,0.094835,0,38,38,144,1,stimuli/objects/trombone.jpg,left,old,145,,,,,,,,
,,,,,,,,4,2020-12-18_15h26.07.356,premce3DEU_ses-02_part-02_label-phase2,2020.1.2,Win32,60,right,0.92454,1,0.321005,0,39,39,94,1,stimuli/objects/dandelion.jpg,right,new,95,,,,,,,,
,,,,,,,,4,2020-12-18_15h26.07.356,premce3DEU_ses-02_part-02_label-phase2,2020.1.2,Win32,60,right,0.957895,3,0.001595,0,40,40,63,1,stimuli/objects/toasteroven.jpg,right,new,64,,,,,,,,
,,,,,,,,4,2020-12-18_15h26.07.356,premce3DEU_ses-02_part-02_label-phase2,2020.1.2,Win32,60,right,0.968315,3,0.280335,0,41,41,95,1,stimuli/objects/scalpel.jpg,left,old,96,,,,,,,,
,,,,,,,,4,2020-12-18_15h26.07.356,premce3DEU_ses-02_part-02_label-phase2,2020.1.2,Win32,60,right,0.819265,3,0.060635,0,42,42,117,1,stimuli/objects/bull.jpg,right,new,118,,,,,,,,
,,,,,,,,4,2020-12-18_15h26.07.356,premce3DEU_ses-02_part-02_label-phase2,2020.1.2,Win32,60,right,0.746435,4,0.62588,0,43,43,80,1,stimuli/objects/tree.jpg,right,new,81,,,,,,,,
,,,,,,,,4,2020-12-18_15h26.07.356,premce3DEU_ses-02_part-02_label-phase2,2020.1.2,Win32,60,right,1.19038,3,0.272845,0,44,44,24,1,stimuli/objects/icecube02.jpg,right,new,25,,,,,,,,
,,,,,,,,4,2020-12-18_15h26.07.356,premce3DEU_ses-02_part-02_label-phase2,2020.1.2,Win32,60,right,0.624555,1,0.16824,0,45,45,93,1,stimuli/objects/discoball.jpg,right,new,94,,,,,,,,
,,,,,,,,4,2020-12-18_15h26.07.356,premce3DEU_ses-02_part-02_label-phase2,2020.1.2,Win32,60,right,0.70433,2,0.266105,0,46,46,71,1,stimuli/objects/bed.jpg,right,new,72,,,,,,,,
,,,,,,,,4,2020-12-18_15h26.07.356,premce3DEU_ses-02_part-02_label-phase2,2020.1.2,Win32,60,right,0.684965,2,0.243335,0,47,47,39,1,stimuli/objects/electrictoothbrush01c.jpg,right,new,40,,,,,,,,
,,,,,,,,4,2020-12-18_15h26.07.356,premce3DEU_ses-02_part-02_label-phase2,2020.1.2,Win32,60,right,0.618835,2,0.15409,0,48,48,59,1,stimuli/objects/birdhouse.jpg,right,new,60,,,,,,,,
,,,,,,,,4,2020-12-18_15h26.07.356,premce3DEU_ses-02_part-02_label-phase2,2020.1.2,Win32,60,right,1.142475,2,0.438735,0,49,49,90,1,stimuli/objects/trailer.jpg,right,new,91,,,,,,,,
,,,,,,,,4,2020-12-18_15h26.07.356,premce3DEU_ses-02_part-02_label-phase2,2020.1.2,Win32,60,left,1.198825,4,0.20965,0,50,50,115,1,stimuli/objects/lantern03.jpg,left,old,116,,,,,,,,
,,,,,,,,4,2020-12-18_15h26.07.356,premce3DEU_ses-02_part-02_label-phase2,2020.1.2,Win32,60,right,0.98963,1,1.269215,0,51,51,147,1,stimuli/objects/toiletbrush.jpg,right,new,148,,,,,,,,
,,,,,,,,4,2020-12-18_15h26.07.356,premce3DEU_ses-02_part-02_label-phase2,2020.1.2,Win32,60,right,1.867475,3,0.700375,0,52,52,72,1,stimuli/objects/totempole.jpg,right,new,73,,,,,,,,
,,,,,,,,4,2020-12-18_15h26.07.356,premce3DEU_ses-02_part-02_label-phase2,2020.1.2,Win32,60,left,2.38011,2,0.629975,0,53,53,99,1,stimuli/objects/waterfountain02.jpg,left,old,100,,,,,,,,
,,,,,,,,4,2020-12-18_15h26.07.356,premce3DEU_ses-02_part-02_label-phase2,2020.1.2,Win32,60,left,1.51406,2,0.201265,0,54,54,106,1,stimuli/objects/helicopter.jpg,right,new,107,,,,,,,,
,,,,,,,,4,2020-12-18_15h26.07.356,premce3DEU_ses-02_part-02_label-phase2,2020.1.2,Win32,60,right,0.91488,3,0.52169,0,55,55,48,1,stimuli/objects/bowlingpin.jpg,left,old,49,,,,,,,,
,,,,,,,,4,2020-12-18_15h26.07.356,premce3DEU_ses-02_part-02_label-phase2,2020.1.2,Win32,60,left,2.33005,1,0.046505,0,56,56,47,1,stimuli/objects/stepladder.jpg,left,old,48,,,,,,,,
,,,,,,,,4,2020-12-18_15h26.07.356,premce3DEU_ses-02_part-02_label-phase2,2020.1.2,Win32,60,left,0.90838,4,0.205835,0,57,57,77,1,stimuli/objects/fishskeleton.jpg,left,old,78,,,,,,,,
,,,,,,,,4,2020-12-18_15h26.07.356,premce3DEU_ses-02_part-02_label-phase2,2020.1.2,Win32,60,right,1.43586,1,2.75205,0,58,58,130,1,stimuli/objects/tulip02.jpg,left,old,131,,,,,,,,
,,,,,,,,4,2020-12-18_15h26.07.356,premce3DEU_ses-02_part-02_label-phase2,2020.1.2,Win32,60,right,1.22111,2,0.31068,0,59,59,30,1,stimuli/objects/fortunecookie.jpg,right,new,31,,,,,,,,
,,,,,,,,4,2020-12-18_15h26.07.356,premce3DEU_ses-02_part-02_label-phase2,2020.1.2,Win32,60,right,0.917745,3,0.61266,0,60,60,20,1,stimuli/objects/accordion01.jpg,right,new,21,,,,,,,,
,,,,,,,,4,2020-12-18_15h26.07.356,premce3DEU_ses-02_part-02_label-phase2,2020.1.2,Win32,60,left,1.751615,2,0.38861,0,61,61,79,1,stimuli/objects/callbell.jpg,left,old,80,,,,,,,,
,,,,,,,,4,2020-12-18_15h26.07.356,premce3DEU_ses-02_part-02_label-phase2,2020.1.2,Win32,60,right,1.13135,3,0.87928,0,62,62,96,1,stimuli/objects/awning.jpg,right,new,97,,,,,,,,
,,,,,,,,4,2020-12-18_15h26.07.356,premce3DEU_ses-02_part-02_label-phase2,2020.1.2,Win32,60,left,0.91931,2,0.9838,0,63,63,74,1,stimuli/objects/windturbine.jpg,left,old,75,,,,,,,,
,,,,,,,,4,2020-12-18_15h26.07.356,premce3DEU_ses-02_part-02_label-phase2,2020.1.2,Win32,60,left,1.036305,4,0.16306,0,64,64,152,1,stimuli/objects/urinal.jpg,left,old,153,,,,,,,,
,,,,,,,,4,2020-12-18_15h26.07.356,premce3DEU_ses-02_part-02_label-phase2,2020.1.2,Win32,60,left,0.9523,4,0.30917,0,65,65,68,1,stimuli/objects/cuttlefish.jpg,left,old,69,,,,,,,,
,,,,,,,,4,2020-12-18_15h26.07.356,premce3DEU_ses-02_part-02_label-phase2,2020.1.2,Win32,60,right,0.995975,3,0.59671,0,66,66,41,1,stimuli/objects/faxmachine.jpg,right,new,42,,,,,,,,
,,,,,,,,4,2020-12-18_15h26.07.356,premce3DEU_ses-02_part-02_label-phase2,2020.1.2,Win32,60,right,1.6445,1,0.2543,0,67,67,55,1,stimuli/objects/drumstick.jpg,right,new,56,,,,,,,,
,,,,,,,,4,2020-12-18_15h26.07.356,premce3DEU_ses-02_part-02_label-phase2,2020.1.2,Win32,60,right,0.84823,2,0.22314,0,68,68,107,1,stimuli/objects/musicstand.jpg,left,old,108,,,,,,,,
,,,,,,,,4,2020-12-18_15h26.07.356,premce3DEU_ses-02_part-02_label-phase2,2020.1.2,Win32,60,left,1.003575,2,0.258985,0,69,69,142,1,stimuli/objects/giraffe.jpg,left,old,143,,,,,,,,
,,,,,,,,4,2020-12-18_15h26.07.356,premce3DEU_ses-02_part-02_label-phase2,2020.1.2,Win32,60,right,0.85067,1,0.277775,0,70,70,31,1,stimuli/objects/file.jpg,left,old,32,,,,,,,,
,,,,,,,,4,2020-12-18_15h26.07.356,premce3DEU_ses-02_part-02_label-phase2,2020.1.2,Win32,60,left,1.03424,4,0.1573,0,71,71,120,1,stimuli/objects/panda.jpg,left,old,121,,,,,,,,
,,,,,,,,4,2020-12-18_15h26.07.356,premce3DEU_ses-02_part-02_label-phase2,2020.1.2,Win32,60,left,0.934695,4,0.20736,0,72,72,35,1,stimuli/objects/skihelmet01.jpg,left,old,36,,,,,,,,
,,,,,,,,4,2020-12-18_15h26.07.356,premce3DEU_ses-02_part-02_label-phase2,2020.1.2,Win32,60,left,0.706835,4,0.6746,0,73,73,69,1,stimuli/objects/granolabar01.jpg,left,old,70,,,,,,,,
,,,,,,,,4,2020-12-18_15h26.07.356,premce3DEU_ses-02_part-02_label-phase2,2020.1.2,Win32,60,left,0.779835,4,0.162185,0,74,74,65,1,stimuli/objects/weddingcake.jpg,left,old,66,,,,,,,,
,,,,,,,,4,2020-12-18_15h26.07.356,premce3DEU_ses-02_part-02_label-phase2,2020.1.2,Win32,60,right,1.06598,2,0.51074,0,75,75,75,1,stimuli/objects/barn.jpg,left,old,76,,,,,,,,
,,,,,,,,4,2020-12-18_15h26.07.356,premce3DEU_ses-02_part-02_label-phase2,2020.1.2,Win32,60,right,1.36236,3,0.26066,0,76,76,134,1,stimuli/objects/nunchuk.jpg,right,new,135,,,,,,,,
,,,,,,,,4,2020-12-18_15h26.07.356,premce3DEU_ses-02_part-02_label-phase2,2020.1.2,Win32,60,left,1.052445,4,0.12508,0,77,77,153,1,stimuli/objects/coffeemachine.jpg,left,old,154,,,,,,,,
,,,,,,,,4,2020-12-18_15h26.07.356,premce3DEU_ses-02_part-02_label-phase2,2020.1.2,Win32,60,right,0.850365,2,0.685875,0,78,78,2,1,stimuli/objects/table01.jpg,left,old,3,,,,,,,,
,,,,,,,,4,2020-12-18_15h26.07.356,premce3DEU_ses-02_part-02_label-phase2,2020.1.2,Win32,60,right,1.251945,2,0.325895,0,79,79,133,1,stimuli/objects/sink.jpg,right,new,134,,,,,,,,
,,,,,,,,4,2020-12-18_15h26.07.356,premce3DEU_ses-02_part-02_label-phase2,2020.1.2,Win32,60,right,1.18528,1,0.274035,0,80,80,66,1,stimuli/objects/shipinabottle.jpg,right,new,67,,,,,,,,
,,,,,,,,4,2020-12-18_15h26.07.356,premce3DEU_ses-02_part-02_label-phase2,2020.1.2,Win32,60,right,0.74386,2,0.20003,0,81,81,86,1,stimuli/objects/chimney.jpg,right,new,87,,,,,,,,
,,,,,,,,4,2020-12-18_15h26.07.356,premce3DEU_ses-02_part-02_label-phase2,2020.1.2,Win32,60,left,1.106465,2,0.63595,0,82,82,36,1,stimuli/objects/christmaslights.jpg,left,old,37,,,,,,,,
,,,,,,,,4,2020-12-18_15h26.07.356,premce3DEU_ses-02_part-02_label-phase2,2020.1.2,Win32,60,right,1.42805,2,0.25135,0,83,83,124,1,stimuli/objects/handheldtelescope.jpg,left,old,125,,,,,,,,
,,,,,,,,4,2020-12-18_15h26.07.356,premce3DEU_ses-02_part-02_label-phase2,2020.1.2,Win32,60,right,0.808815,2,0.198115,0,84,84,146,1,stimuli/objects/ant.jpg,right,new,147,,,,,,,,
,,,,,,,,4,2020-12-18_15h26.07.356,premce3DEU_ses-02_part-02_label-phase2,2020.1.2,Win32,60,right,0.94893,3,0.956595,0,85,85,38,1,stimuli/objects/pig.jpg,right,new,39,,,,,,,,
,,,,,,,,4,2020-12-18_15h26.07.356,premce3DEU_ses-02_part-02_label-phase2,2020.1.2,Win32,60,right,1.01729,3,0.14017,0,86,86,11,1,stimuli/objects/cannon.jpg,left,old,12,,,,,,,,
,,,,,,,,4,2020-12-18_15h26.07.356,premce3DEU_ses-02_part-02_label-phase2,2020.1.2,Win32,60,right,1.20347,2,0.39011,0,87,87,22,1,stimuli/objects/paperairplane.jpg,right,new,23,,,,,,,,
,,,,,,,,4,2020-12-18_15h26.07.356,premce3DEU_ses-02_part-02_label-phase2,2020.1.2,Win32,60,right,1.550145,2,0.3662,0,88,88,58,1,stimuli/objects/beaver.jpg,left,old,59,,,,,,,,
,,,,,,,,4,2020-12-18_15h26.07.356,premce3DEU_ses-02_part-02_label-phase2,2020.1.2,Win32,60,right,0.88044,2,0.233545,0,89,89,125,1,stimuli/objects/freezer02.jpg,right,new,126,,,,,,,,
,,,,,,,,4,2020-12-18_15h26.07.356,premce3DEU_ses-02_part-02_label-phase2,2020.1.2,Win32,60,right,0.740325,1,1.0708,0,90,90,103,1,stimuli/objects/salmon.jpg,left,old,104,,,,,,,,
,,,,,,,,4,2020-12-18_15h26.07.356,premce3DEU_ses-02_part-02_label-phase2,2020.1.2,Win32,60,right,0.931755,1,0.064175,0,91,91,34,1,stimuli/objects/aquarium.jpg,left,old,35,,,,,,,,
,,,,,,,,4,2020-12-18_15h26.07.356,premce3DEU_ses-02_part-02_label-phase2,2020.1.2,Win32,60,right,0.72289,2,0.16253,0,92,92,17,1,stimuli/objects/parkingmeter.jpg,right,new,18,,,,,,,,
,,,,,,,,4,2020-12-18_15h26.07.356,premce3DEU_ses-02_part-02_label-phase2,2020.1.2,Win32,60,right,0.822815,1,0.04523,0,93,93,52,1,stimuli/objects/turkey.jpg,right,new,53,,,,,,,,
,,,,,,,,4,2020-12-18_15h26.07.356,premce3DEU_ses-02_part-02_label-phase2,2020.1.2,Win32,60,left,0.75571,3,0.511455,0,94,94,84,1,stimuli/objects/winniethepooh.jpg,left,old,85,,,,,,,,
,,,,,,,,4,2020-12-18_15h26.07.356,premce3DEU_ses-02_part-02_label-phase2,2020.1.2,Win32,60,left,1.25686,2,0.154995,0,95,95,87,1,stimuli/objects/filingcabinet.jpg,left,old,88,,,,,,,,
,,,,,,,,4,2020-12-18_15h26.07.356,premce3DEU_ses-02_part-02_label-phase2,2020.1.2,Win32,60,right,1.067805,2,1.75535,0,96,96,92,1,stimuli/objects/armchair02.jpg,right,new,93,,,,,,,,
,,,,,,,,4,2020-12-18_15h26.07.356,premce3DEU_ses-02_part-02_label-phase2,2020.1.2,Win32,60,right,0.84139,2,0.12783,0,97,97,105,1,stimuli/objects/gps.jpg,left,old,106,,,,,,,,
,,,,,,,,4,2020-12-18_15h26.07.356,premce3DEU_ses-02_part-02_label-phase2,2020.1.2,Win32,60,left,0.79299,4,0.0774,0,98,98,137,1,stimuli/objects/brownsugar.jpg,left,old,138,,,,,,,,
,,,,,,,,4,2020-12-18_15h26.07.356,premce3DEU_ses-02_part-02_label-phase2,2020.1.2,Win32,60,right,1.11063,2,0.85648,0,99,99,27,1,stimuli/objects/coffeemaker.jpg,left,old,28,,,,,,,,
,,,,,,,,4,2020-12-18_15h26.07.356,premce3DEU_ses-02_part-02_label-phase2,2020.1.2,Win32,60,left,1.370435,3,0.20314,0,100,100,19,1,stimuli/objects/crosscountryski.jpg,right,new,20,,,,,,,,
,,,,,,,,4,2020-12-18_15h26.07.356,premce3DEU_ses-02_part-02_label-phase2,2020.1.2,Win32,60,left,0.919995,4,0.006785,0,101,101,16,1,stimuli/objects/cactus.jpg,left,old,17,,,,,,,,
,,,,,,,,4,2020-12-18_15h26.07.356,premce3DEU_ses-02_part-02_label-phase2,2020.1.2,Win32,60,right,0.74894,4,0.42439,0,102,102,51,1,stimuli/objects/road02.jpg,right,new,52,,,,,,,,
,,,,,,,,4,2020-12-18_15h26.07.356,premce3DEU_ses-02_part-02_label-phase2,2020.1.2,Win32,60,right,1.187615,3,0.641985,0,103,103,21,1,stimuli/objects/tire.jpg,right,new,22,,,,,,,,
,,,,,,,,4,2020-12-18_15h26.07.356,premce3DEU_ses-02_part-02_label-phase2,2020.1.2,Win32,60,left,1.48346,2,0.048815,0,104,104,81,1,stimuli/objects/lighthouse.jpg,right,new,82,,,,,,,,
,,,,,,,,4,2020-12-18_15h26.07.356,premce3DEU_ses-02_part-02_label-phase2,2020.1.2,Win32,60,left,1.069625,3,0.1797,0,105,105,42,1,stimuli/objects/snowshoe.jpg,right,new,43,,,,,,,,
,,,,,,,,4,2020-12-18_15h26.07.356,premce3DEU_ses-02_part-02_label-phase2,2020.1.2,Win32,60,right,0.68052,3,0.921725,0,106,106,112,1,stimuli/objects/tank.jpg,right,new,113,,,,,,,,
,,,,,,,,4,2020-12-18_15h26.07.356,premce3DEU_ses-02_part-02_label-phase2,2020.1.2,Win32,60,right,0.78698,2,0.241885,0,107,107,139,1,stimuli/objects/safe.jpg,right,new,140,,,,,,,,
,,,,,,,,4,2020-12-18_15h26.07.356,premce3DEU_ses-02_part-02_label-phase2,2020.1.2,Win32,60,right,0.83937,2,0.200605,0,108,108,145,1,stimuli/objects/church.jpg,right,new,146,,,,,,,,
,,,,,,,,4,2020-12-18_15h26.07.356,premce3DEU_ses-02_part-02_label-phase2,2020.1.2,Win32,60,left,1.90471,3,1.070575,0,109,109,128,1,stimuli/objects/makiroll.jpg,right,new,129,,,,,,,,
,,,,,,,,4,2020-12-18_15h26.07.356,premce3DEU_ses-02_part-02_label-phase2,2020.1.2,Win32,60,left,1.98722,2,0.31684,0,110,110,64,1,stimuli/objects/dalmatian.jpg,left,old,65,,,,,,,,
,,,,,,,,4,2020-12-18_15h26.07.356,premce3DEU_ses-02_part-02_label-phase2,2020.1.2,Win32,60,left,2.446745,3,0.7632,0,111,111,91,1,stimuli/objects/eyepatch.jpg,left,old,92,,,,,,,,
,,,,,,,,4,2020-12-18_15h26.07.356,premce3DEU_ses-02_part-02_label-phase2,2020.1.2,Win32,60,left,0.82234,4,0.1689,0,112,112,110,1,stimuli/objects/foosballtable.jpg,right,new,111,,,,,,,,
,,,,,,,,4,2020-12-18_15h26.07.356,premce3DEU_ses-02_part-02_label-phase2,2020.1.2,Win32,60,right,0.735215,3,0.43029,0,113,113,100,1,stimuli/objects/macaroni01.jpg,right,new,101,,,,,,,,
,,,,,,,,4,2020-12-18_15h26.07.356,premce3DEU_ses-02_part-02_label-phase2,2020.1.2,Win32,60,left,1.031195,3,0.496815,0,114,114,57,1,stimuli/objects/cupcake.jpg,right,new,58,,,,,,,,
,,,,,,,,4,2020-12-18_15h26.07.356,premce3DEU_ses-02_part-02_label-phase2,2020.1.2,Win32,60,right,0.79905,2,0.3107,0,115,115,1,1,stimuli/objects/pooltable.jpg,right,new,2,,,,,,,,
,,,,,,,,4,2020-12-18_15h26.07.356,premce3DEU_ses-02_part-02_label-phase2,2020.1.2,Win32,60,right,1.39992,2,0.130035,0,116,116,108,1,stimuli/objects/communitymailbox.jpg,left,old,109,,,,,,,,
,,,,,,,,4,2020-12-18_15h26.07.356,premce3DEU_ses-02_part-02_label-phase2,2020.1.2,Win32,60,left,0.769035,4,0.107605,0,117,117,40,1,stimuli/objects/cremebrulee.jpg,left,old,41,,,,,,,,
,,,,,,,,4,2020-12-18_15h26.07.356,premce3DEU_ses-02_part-02_label-phase2,2020.1.2,Win32,60,right,0.994,2,0.111375,0,118,118,8,1,stimuli/objects/englishcucumber.jpg,right,new,9,,,,,,,,
,,,,,,,,4,2020-12-18_15h26.07.356,premce3DEU_ses-02_part-02_label-phase2,2020.1.2,Win32,60,right,0.705355,3,1.19878,0,119,119,126,1,stimuli/objects/bat.jpg,right,new,127,,,,,,,,
,,,,,,,,4,2020-12-18_15h26.07.356,premce3DEU_ses-02_part-02_label-phase2,2020.1.2,Win32,60,right,1.3911,2,0.3023,0,120,120,119,1,stimuli/objects/kite.jpg,right,new,120,,,,,,,,
,,,,,,,,4,2020-12-18_15h26.07.356,premce3DEU_ses-02_part-02_label-phase2,2020.1.2,Win32,60,right,1.17786,3,0.821845,0,121,121,12,1,stimuli/objects/pigeon.jpg,right,new,13,,,,,,,,
,,,,,,,,4,2020-12-18_15h26.07.356,premce3DEU_ses-02_part-02_label-phase2,2020.1.2,Win32,60,right,0.661285,1,0.329385,0,122,122,118,1,stimuli/objects/microwave.jpg,left,old,119,,,,,,,,
,,,,,,,,4,2020-12-18_15h26.07.356,premce3DEU_ses-02_part-02_label-phase2,2020.1.2,Win32,60,right,1.01253,1,0.13795,0,123,123,37,1,stimuli/objects/golfball.jpg,left,old,38,,,,,,,,
,,,,,,,,4,2020-12-18_15h26.07.356,premce3DEU_ses-02_part-02_label-phase2,2020.1.2,Win32,60,left,1.199365,3,0.007045,0,124,124,114,1,stimuli/objects/star.jpg,left,old,115,,,,,,,,
,,,,,,,,4,2020-12-18_15h26.07.356,premce3DEU_ses-02_part-02_label-phase2,2020.1.2,Win32,60,left,0.70558,4,0.069835,0,125,125,157,1,stimuli/objects/cookingpot.jpg,left,old,158,,,,,,,,
,,,,,,,,4,2020-12-18_15h26.07.356,premce3DEU_ses-02_part-02_label-phase2,2020.1.2,Win32,60,right,0.768785,1,0.493895,0,126,126,43,1,stimuli/objects/ostrich.jpg,right,new,44,,,,,,,,
,,,,,,,,4,2020-12-18_15h26.07.356,premce3DEU_ses-02_part-02_label-phase2,2020.1.2,Win32,60,right,0.91733,3,1.066535,0,127,127,85,1,stimuli/objects/bridge.jpg,right,new,86,,,,,,,,
,,,,,,,,4,2020-12-18_15h26.07.356,premce3DEU_ses-02_part-02_label-phase2,2020.1.2,Win32,60,right,0.92042,1,1.24989,0,128,128,0,1,stimuli/objects/treestump.jpg,left,old,1,,,,,,,,
,,,,,,,,4,2020-12-18_15h26.07.356,premce3DEU_ses-02_part-02_label-phase2,2020.1.2,Win32,60,right,0.928885,2,1.21336,0,129,129,101,1,stimuli/objects/apron.jpg,left,old,102,,,,,,,,
,,,,,,,,4,2020-12-18_15h26.07.356,premce3DEU_ses-02_part-02_label-phase2,2020.1.2,Win32,60,right,0.83258,1,0.5373,0,130,130,60,1,stimuli/objects/banjo.jpg,right,new,61,,,,,,,,
,,,,,,,,4,2020-12-18_15h26.07.356,premce3DEU_ses-02_part-02_label-phase2,2020.1.2,Win32,60,left,1.053905,4,0.12909,0,131,131,61,1,stimuli/objects/jokercard.jpg,left,old,62,,,,,,,,
,,,,,,,,4,2020-12-18_15h26.07.356,premce3DEU_ses-02_part-02_label-phase2,2020.1.2,Win32,60,left,1.26066,4,0.09833,0,132,132,7,1,stimuli/objects/redonion.jpg,left,old,8,,,,,,,,
,,,,,,,,4,2020-12-18_15h26.07.356,premce3DEU_ses-02_part-02_label-phase2,2020.1.2,Win32,60,right,1.329695,2,0.152745,0,133,133,148,1,stimuli/objects/peacock.jpg,right,new,149,,,,,,,,
,,,,,,,,4,2020-12-18_15h26.07.356,premce3DEU_ses-02_part-02_label-phase2,2020.1.2,Win32,60,left,1.102695,3,0.405665,0,134,134,132,1,stimuli/objects/shower.jpg,left,old,133,,,,,,,,
,,,,,,,,4,2020-12-18_15h26.07.356,premce3DEU_ses-02_part-02_label-phase2,2020.1.2,Win32,60,right,0.876565,2,0.047795,0,135,135,3,1,stimuli/objects/vacuumcleaner01.jpg,left,old,4,,,,,,,,
,,,,,,,,4,2020-12-18_15h26.07.356,premce3DEU_ses-02_part-02_label-phase2,2020.1.2,Win32,60,right,0.858265,1,1.884635,0,136,136,158,1,stimuli/objects/watercooler.jpg,right,new,159,,,,,,,,
,,,,,,,,4,2020-12-18_15h26.07.356,premce3DEU_ses-02_part-02_label-phase2,2020.1.2,Win32,60,left,0.865415,4,0.209975,0,137,137,6,1,stimuli/objects/pumpkin.jpg,left,old,7,,,,,,,,
,,,,,,,,4,2020-12-18_15h26.07.356,premce3DEU_ses-02_part-02_label-phase2,2020.1.2,Win32,60,right,1.15092,2,1.30394,0,138,138,121,1,stimuli/objects/riverotter.jpg,right,new,122,,,,,,,,
,,,,,,,,4,2020-12-18_15h26.07.356,premce3DEU_ses-02_part-02_label-phase2,2020.1.2,Win32,60,right,0.686295,2,0.02977,0,139,139,109,1,stimuli/objects/webcam.jpg,right,new,110,,,,,,,,
,,,,,,,,4,2020-12-18_15h26.07.356,premce3DEU_ses-02_part-02_label-phase2,2020.1.2,Win32,60,right,0.76961,2,0.50956,0,140,140,155,1,stimuli/objects/calendar.jpg,right,new,156,,,,,,,,
,,,,,,,,4,2020-12-18_15h26.07.356,premce3DEU_ses-02_part-02_label-phase2,2020.1.2,Win32,60,left,1.1731,2,0.267245,0,141,141,122,1,stimuli/objects/soccerball.jpg,left,old,123,,,,,,,,
,,,,,,,,4,2020-12-18_15h26.07.356,premce3DEU_ses-02_part-02_label-phase2,2020.1.2,Win32,60,right,1.17286,2,0.941445,0,142,142,23,1,stimuli/objects/lollipop04.jpg,right,new,24,,,,,,,,
,,,,,,,,4,2020-12-18_15h26.07.356,premce3DEU_ses-02_part-02_label-phase2,2020.1.2,Win32,60,left,0.756165,2,0.253635,0,143,143,83,1,stimuli/objects/flugglehorn.jpg,right,new,84,,,,,,,,
,,,,,,,,4,2020-12-18_15h26.07.356,premce3DEU_ses-02_part-02_label-phase2,2020.1.2,Win32,60,right,0.865895,3,0.341785,0,144,144,54,1,stimuli/objects/toynutcracker.jpg,right,new,55,,,,,,,,
,,,,,,,,4,2020-12-18_15h26.07.356,premce3DEU_ses-02_part-02_label-phase2,2020.1.2,Win32,60,right,0.857955,3,0.142185,0,145,145,18,1,stimuli/objects/pingpongtable.jpg,right,new,19,,,,,,,,
,,,,,,,,4,2020-12-18_15h26.07.356,premce3DEU_ses-02_part-02_label-phase2,2020.1.2,Win32,60,right,0.86786,3,0.000685,0,146,146,104,1,stimuli/objects/porcupine.jpg,left,old,105,,,,,,,,
,,,,,,,,4,2020-12-18_15h26.07.356,premce3DEU_ses-02_part-02_label-phase2,2020.1.2,Win32,60,right,0.770305,2,0.397745,0,147,147,113,1,stimuli/objects/shoppingcart.jpg,right,new,114,,,,,,,,
,,,,,,,,4,2020-12-18_15h26.07.356,premce3DEU_ses-02_part-02_label-phase2,2020.1.2,Win32,60,right,1.02467,1,0.808275,0,148,148,123,1,stimuli/objects/lintroller.jpg,left,old,124,,,,,,,,
,,,,,,,,4,2020-12-18_15h26.07.356,premce3DEU_ses-02_part-02_label-phase2,2020.1.2,Win32,60,right,0.84872,1,0.131455,0,149,149,73,1,stimuli/objects/guitarcase.jpg,right,new,74,,,,,,,,
,,,,,,,,4,2020-12-18_15h26.07.356,premce3DEU_ses-02_part-02_label-phase2,2020.1.2,Win32,60,left,0.73416,4,0.09741,0,150,150,29,1,stimuli/objects/snowman.jpg,left,old,30,,,,,,,,
,,,,,,,,4,2020-12-18_15h26.07.356,premce3DEU_ses-02_part-02_label-phase2,2020.1.2,Win32,60,left,2.31438,2,0.221685,0,151,151,136,1,stimuli/objects/wheat.jpg,right,new,137,,,,,,,,
,,,,,,,,4,2020-12-18_15h26.07.356,premce3DEU_ses-02_part-02_label-phase2,2020.1.2,Win32,60,right,2.082975,1,0.325015,0,152,152,154,1,stimuli/objects/curtain.jpg,right,new,155,,,,,,,,
,,,,,,,,4,2020-12-18_15h26.07.356,premce3DEU_ses-02_part-02_label-phase2,2020.1.2,Win32,60,right,1.09643,1,0.73925,0,153,153,138,1,stimuli/objects/cow.jpg,right,new,139,,,,,,,,
,,,,,,,,4,2020-12-18_15h26.07.356,premce3DEU_ses-02_part-02_label-phase2,2020.1.2,Win32,60,right,0.825605,3,0.275975,0,154,154,141,1,stimuli/objects/stroller.jpg,right,new,142,,,,,,,,
,,,,,,,,4,2020-12-18_15h26.07.356,premce3DEU_ses-02_part-02_label-phase2,2020.1.2,Win32,60,right,0.97496,1,0.696045,0,155,155,135,1,stimuli/objects/basketball01.jpg,left,old,136,,,,,,,,
,,,,,,,,4,2020-12-18_15h26.07.356,premce3DEU_ses-02_part-02_label-phase2,2020.1.2,Win32,60,right,0.844565,2,0.09884,0,156,156,10,1,stimuli/objects/tablesaw.jpg,right,new,11,,,,,,,,
,,,,,,,,4,2020-12-18_15h26.07.356,premce3DEU_ses-02_part-02_label-phase2,2020.1.2,Win32,60,left,2.65707,2,0.01362,0,157,157,28,1,stimuli/objects/seaturtle.jpg,left,old,29,,,,,,,,
,,,,,,,,4,2020-12-18_15h26.07.356,premce3DEU_ses-02_part-02_label-phase2,2020.1.2,Win32,60,right,0.80411,1,0.33896,0,158,158,102,1,stimuli/objects/forklift.jpg,left,old,103,,,,,,,,
,,,,,,,,4,2020-12-18_15h26.07.356,premce3DEU_ses-02_part-02_label-phase2,2020.1.2,Win32,60,left,0.82941,2,0.14439,0,159,159,33,1,stimuli/objects/caribou02.jpg,right,new,34,,,,,,,,
,,,,,,,,4,2020-12-18_15h26.07.356,premce3DEU_ses-02_part-02_label-phase2,2020.1.2,Win32,60,,,,,,,,,,,,,,space,1.557235,0,0,0,0,1,ImagesforRecog1.csv
,,,,,,,,4,2020-12-18_15h26.07.356,premce3DEU_ses-02_part-02_label-phase2,2020.1.2,Win32,60,right,0.873815,2,0.28354,0,0,0,105,1,stimuli/objects/beerbottle.jpg,left,old,266,,,,,,,,
,,,,,,,,4,2020-12-18_15h26.07.356,premce3DEU_ses-02_part-02_label-phase2,2020.1.2,Win32,60,left,0.86367,4,0.000785,0,1,1,94,1,stimuli/objects/scorpion.jpg,right,new,255,,,,,,,,
,,,,,,,,4,2020-12-18_15h26.07.356,premce3DEU_ses-02_part-02_label-phase2,2020.1.2,Win32,60,right,0.810985,2,0.532245,0,2,2,102,1,stimuli/objects/baseballglove.jpg,left,old,263,,,,,,,,
,,,,,,,,4,2020-12-18_15h26.07.356,premce3DEU_ses-02_part-02_label-phase2,2020.1.2,Win32,60,right,0.74325,2,0.011645,0,3,3,113,1,stimuli/objects/bluejay.jpg,right,new,274,,,,,,,,
,,,,,,,,4,2020-12-18_15h26.07.356,premce3DEU_ses-02_part-02_label-phase2,2020.1.2,Win32,60,right,1.0731,3,0.18741,0,4,4,56,1,stimuli/objects/toyanimal05.jpg,left,old,217,,,,,,,,
,,,,,,,,4,2020-12-18_15h26.07.356,premce3DEU_ses-02_part-02_label-phase2,2020.1.2,Win32,60,left,1.16652,4,0.778495,0,5,5,130,1,stimuli/objects/pirateflag.jpg,left,old,291,,,,,,,,
,,,,,,,,4,2020-12-18_15h26.07.356,premce3DEU_ses-02_part-02_label-phase2,2020.1.2,Win32,60,right,0.63501,2,0.14639,0,6,6,89,1,stimuli/objects/cruiseship.jpg,left,old,250,,,,,,,,
,,,,,,,,4,2020-12-18_15h26.07.356,premce3DEU_ses-02_part-02_label-phase2,2020.1.2,Win32,60,left,0.99694,3,0.385125,0,7,7,7,1,stimuli/objects/bolt01a.jpg,left,old,168,,,,,,,,
,,,,,,,,4,2020-12-18_15h26.07.356,premce3DEU_ses-02_part-02_label-phase2,2020.1.2,Win32,60,right,0.78011,2,0.09059,0,8,8,31,1,stimuli/objects/horseshoe.jpg,right,new,192,,,,,,,,
,,,,,,,,4,2020-12-18_15h26.07.356,premce3DEU_ses-02_part-02_label-phase2,2020.1.2,Win32,60,right,1.069185,3,0.00068,0,9,9,72,1,stimuli/objects/doghouse.jpg,left,old,233,,,,,,,,
,,,,,,,,4,2020-12-18_15h26.07.356,premce3DEU_ses-02_part-02_label-phase2,2020.1.2,Win32,60,left,0.823355,3,0.28438,0,10,10,71,1,stimuli/objects/tennisracket.jpg,right,new,232,,,,,,,,
,,,,,,,,4,2020-12-18_15h26.07.356,premce3DEU_ses-02_part-02_label-phase2,2020.1.2,Win32,60,right,0.95471,2,0.2535,0,11,11,37,1,stimuli/objects/football.jpg,left,old,198,,,,,,,,
,,,,,,,,4,2020-12-18_15h26.07.356,premce3DEU_ses-02_part-02_label-phase2,2020.1.2,Win32,60,right,0.767825,2,0.42054,0,12,12,129,1,stimuli/objects/escalator.jpg,left,old,290,,,,,,,,
,,,,,,,,4,2020-12-18_15h26.07.356,premce3DEU_ses-02_part-02_label-phase2,2020.1.2,Win32,60,right,0.971805,1,0.286215,0,13,13,73,1,stimuli/objects/barrel01.jpg,left,old,234,,,,,,,,
,,,,,,,,4,2020-12-18_15h26.07.356,premce3DEU_ses-02_part-02_label-phase2,2020.1.2,Win32,60,right,0.68549,2,0.0007,0,14,14,4,1,stimuli/objects/blender.jpg,left,old,165,,,,,,,,
,,,,,,,,4,2020-12-18_15h26.07.356,premce3DEU_ses-02_part-02_label-phase2,2020.1.2,Win32,60,left,0.945845,2,0.268045,0,15,15,156,1,stimuli/objects/shovel01.jpg,left,old,317,,,,,,,,
,,,,,,,,4,2020-12-18_15h26.07.356,premce3DEU_ses-02_part-02_label-phase2,2020.1.2,Win32,60,left,0.68591,1,0.51376,0,16,16,131,1,stimuli/objects/boxingglove01.jpg,right,new,292,,,,,,,,
,,,,,,,,4,2020-12-18_15h26.07.356,premce3DEU_ses-02_part-02_label-phase2,2020.1.2,Win32,60,right,0.967945,1,1.94327,0,17,17,14,1,stimuli/objects/ipad02.jpg,left,old,175,,,,,,,,
,,,,,,,,4,2020-12-18_15h26.07.356,premce3DEU_ses-02_part-02_label-phase2,2020.1.2,Win32,60,right,1.23959,3,0.050335,0,18,18,101,1,stimuli/objects/microphone01.jpg,right,new,262,,,,,,,,
,,,,,,,,4,2020-12-18_15h26.07.356,premce3DEU_ses-02_part-02_label-phase2,2020.1.2,Win32,60,right,2.05074,1,0.353275,0,19,19,34,1,stimuli/objects/shelves.jpg,left,old,195,,,,,,,,
,,,,,,,,4,2020-12-18_15h26.07.356,premce3DEU_ses-02_part-02_label-phase2,2020.1.2,Win32,60,right,2.00111,1,0.04685,0,20,20,88,1,stimuli/objects/toilet.jpg,right,new,249,,,,,,,,
,,,,,,,,4,2020-12-18_15h26.07.356,premce3DEU_ses-02_part-02_label-phase2,2020.1.2,Win32,60,left,1.20907,4,0.1264,0,21,21,142,1,stimuli/objects/lightswitch01.jpg,left,old,303,,,,,,,,
,,,,,,,,4,2020-12-18_15h26.07.356,premce3DEU_ses-02_part-02_label-phase2,2020.1.2,Win32,60,right,1.00488,2,0.35832,0,22,22,77,1,stimuli/objects/electricguitar01.jpg,left,old,238,,,,,,,,
,,,,,,,,4,2020-12-18_15h26.07.356,premce3DEU_ses-02_part-02_label-phase2,2020.1.2,Win32,60,right,0.97001,3,0.428305,0,23,23,141,1,stimuli/objects/gong.jpg,left,old,302,,,,,,,,
,,,,,,,,4,2020-12-18_15h26.07.356,premce3DEU_ses-02_part-02_label-phase2,2020.1.2,Win32,60,right,1.348865,3,0.439225,0,24,24,157,1,stimuli/objects/eagle.jpg,right,new,318,,,,,,,,
,,,,,,,,4,2020-12-18_15h26.07.356,premce3DEU_ses-02_part-02_label-phase2,2020.1.2,Win32,60,left,1.01468,2,0.35226,0,25,25,8,1,stimuli/objects/cloud.jpg,left,old,169,,,,,,,,
,,,,,,,,4,2020-12-18_15h26.07.356,premce3DEU_ses-02_part-02_label-phase2,2020.1.2,Win32,60,right,0.658875,1,0.578585,0,26,26,85,1,stimuli/objects/skiboot01a.jpg,left,old,246,,,,,,,,
,,,,,,,,4,2020-12-18_15h26.07.356,premce3DEU_ses-02_part-02_label-phase2,2020.1.2,Win32,60,left,0.81862,3,0.23626,0,27,27,155,1,stimuli/objects/fishingrod.jpg,left,old,316,,,,,,,,
,,,,,,,,4,2020-12-18_15h26.07.356,premce3DEU_ses-02_part-02_label-phase2,2020.1.2,Win32,60,right,0.702975,2,1.166715,0,28,28,150,1,stimuli/objects/strap.jpg,right,new,311,,,,,,,,
,,,,,,,,4,2020-12-18_15h26.07.356,premce3DEU_ses-02_part-02_label-phase2,2020.1.2,Win32,60,right,1.159475,3,0.20564,0,29,29,33,1,stimuli/objects/noparkingsign.jpg,right,new,194,,,,,,,,
,,,,,,,,4,2020-12-18_15h26.07.356,premce3DEU_ses-02_part-02_label-phase2,2020.1.2,Win32,60,left,0.909735,2,0.50703,0,30,30,18,1,stimuli/objects/showerhead01.jpg,left,old,179,,,,,,,,
,,,,,,,,4,2020-12-18_15h26.07.356,premce3DEU_ses-02_part-02_label-phase2,2020.1.2,Win32,60,left,1.130285,2,0.19498,0,31,31,61,1,stimuli/objects/parrot01.jpg,right,new,222,,,,,,,,
,,,,,,,,4,2020-12-18_15h26.07.356,premce3DEU_ses-02_part-02_label-phase2,2020.1.2,Win32,60,left,0.66316,3,0.052305,0,32,32,30,1,stimuli/objects/key07.jpg,left,old,191,,,,,,,,
,,,,,,,,4,2020-12-18_15h26.07.356,premce3DEU_ses-02_part-02_label-phase2,2020.1.2,Win32,60,right,0.83042,2,0.80594,0,33,33,136,1,stimuli/objects/mouse.jpg,right,new,297,,,,,,,,
,,,,,,,,4,2020-12-18_15h26.07.356,premce3DEU_ses-02_part-02_label-phase2,2020.1.2,Win32,60,right,0.91585,1,0.150155,0,34,34,107,1,stimuli/objects/tambourine03.jpg,right,new,268,,,,,,,,
,,,,,,,,4,2020-12-18_15h26.07.356,premce3DEU_ses-02_part-02_label-phase2,2020.1.2,Win32,60,right,1.150785,2,0.056705,0,35,35,60,1,stimuli/objects/hammerheadshark.jpg,right,new,221,,,,,,,,
,,,,,,,,4,2020-12-18_15h26.07.356,premce3DEU_ses-02_part-02_label-phase2,2020.1.2,Win32,60,right,0.77028,2,0.305445,0,36,36,114,1,stimuli/objects/cymbal.jpg,left,old,275,,,,,,,,
,,,,,,,,4,2020-12-18_15h26.07.356,premce3DEU_ses-02_part-02_label-phase2,2020.1.2,Win32,60,left,0.83043,3,0.05663,0,37,37,104,1,stimuli/objects/rockingchair.jpg,left,old,265,,,,,,,,
,,,,,,,,4,2020-12-18_15h26.07.356,premce3DEU_ses-02_part-02_label-phase2,2020.1.2,Win32,60,right,0.919735,2,0.02844,0,38,38,57,1,stimuli/objects/spaghetti01.jpg,right,new,218,,,,,,,,
,,,,,,,,4,2020-12-18_15h26.07.356,premce3DEU_ses-02_part-02_label-phase2,2020.1.2,Win32,60,left,0.76562,4,0.040105,0,39,39,2,1,stimuli/objects/moon.jpg,left,old,163,,,,,,,,
,,,,,,,,4,2020-12-18_15h26.07.356,premce3DEU_ses-02_part-02_label-phase2,2020.1.2,Win32,60,right,0.65451,2,1.359385,0,40,40,84,1,stimuli/objects/carbattery.jpg,right,new,245,,,,,,,,
,,,,,,,,4,2020-12-18_15h26.07.356,premce3DEU_ses-02_part-02_label-phase2,2020.1.2,Win32,60,left,0.788715,4,0.02395,0,41,41,24,1,stimuli/objects/jaguar.jpg,left,old,185,,,,,,,,
,,,,,,,,4,2020-12-18_15h26.07.356,premce3DEU_ses-02_part-02_label-phase2,2020.1.2,Win32,60,right,0.95149,2,0.288805,0,42,42,146,1,stimuli/objects/tie02.jpg,left,old,307,,,,,,,,
,,,,,,,,4,2020-12-18_15h26.07.356,premce3DEU_ses-02_part-02_label-phase2,2020.1.2,Win32,60,right,1.416295,1,1.243595,0,43,43,132,1,stimuli/objects/windshieldwiper02.jpg,left,old,293,,,,,,,,
,,,,,,,,4,2020-12-18_15h26.07.356,premce3DEU_ses-02_part-02_label-phase2,2020.1.2,Win32,60,right,1.040985,3,0.453035,0,44,44,28,1,stimuli/objects/car.jpg,left,old,189,,,,,,,,
,,,,,,,,4,2020-12-18_15h26.07.356,premce3DEU_ses-02_part-02_label-phase2,2020.1.2,Win32,60,right,0.69015,3,0.09614,0,45,45,110,1,stimuli/objects/funnel.jpg,right,new,271,,,,,,,,
,,,,,,,,4,2020-12-18_15h26.07.356,premce3DEU_ses-02_part-02_label-phase2,2020.1.2,Win32,60,right,0.732445,3,0.02453,0,46,46,115,1,stimuli/objects/witchhat.jpg,left,old,276,,,,,,,,
,,,,,,,,4,2020-12-18_15h26.07.356,premce3DEU_ses-02_part-02_label-phase2,2020.1.2,Win32,60,left,1.09327,4,0.45821,0,47,47,117,1,stimuli/objects/fingerprint.jpg,left,old,278,,,,,,,,
,,,,,,,,4,2020-12-18_15h26.07.356,premce3DEU_ses-02_part-02_label-phase2,2020.1.2,Win32,60,right,0.99105,1,0.40209,0,48,48,19,1,stimuli/objects/zipper.jpg,right,new,180,,,,,,,,
,,,,,,,,4,2020-12-18_15h26.07.356,premce3DEU_ses-02_part-02_label-phase2,2020.1.2,Win32,60,right,0.838895,3,0.504,0,49,49,65,1,stimuli/objects/spacerover.jpg,right,new,226,,,,,,,,
,,,,,,,,4,2020-12-18_15h26.07.356,premce3DEU_ses-02_part-02_label-phase2,2020.1.2,Win32,60,right,1.55632,1,1.13915,0,50,50,116,1,stimuli/objects/rollerblade.jpg,left,old,277,,,,,,,,
,,,,,,,,4,2020-12-18_15h26.07.356,premce3DEU_ses-02_part-02_label-phase2,2020.1.2,Win32,60,right,0.77343,3,0.220275,0,51,51,29,1,stimuli/objects/steeringwheel.jpg,right,new,190,,,,,,,,
,,,,,,,,4,2020-12-18_15h26.07.356,premce3DEU_ses-02_part-02_label-phase2,2020.1.2,Win32,60,left,1.374375,4,0.07969,0,52,52,103,1,stimuli/objects/seagull.jpg,left,old,264,,,,,,,,
,,,,,,,,4,2020-12-18_15h26.07.356,premce3DEU_ses-02_part-02_label-phase2,2020.1.2,Win32,60,right,0.70516,1,0.05571,0,53,53,35,1,stimuli/objects/xylophone.jpg,left,old,196,,,,,,,,
,,,,,,,,4,2020-12-18_15h26.07.356,premce3DEU_ses-02_part-02_label-phase2,2020.1.2,Win32,60,right,0.71575,1,0.610705,0,54,54,36,1,stimuli/objects/sandcastle.jpg,left,old,197,,,,,,,,
,,,,,,,,4,2020-12-18_15h26.07.356,premce3DEU_ses-02_part-02_label-phase2,2020.1.2,Win32,60,left,1.15249,2,0.386045,0,55,55,12,1,stimuli/objects/musicsheet.jpg,right,new,173,,,,,,,,
,,,,,,,,4,2020-12-18_15h26.07.356,premce3DEU_ses-02_part-02_label-phase2,2020.1.2,Win32,60,right,0.81478,2,1.272955,0,56,56,62,1,stimuli/objects/painting.jpg,right,new,223,,,,,,,,
,,,,,,,,4,2020-12-18_15h26.07.356,premce3DEU_ses-02_part-02_label-phase2,2020.1.2,Win32,60,left,0.83491,3,0.000945,0,57,57,95,1,stimuli/objects/sealion.jpg,right,new,256,,,,,,,,
,,,,,,,,4,2020-12-18_15h26.07.356,premce3DEU_ses-02_part-02_label-phase2,2020.1.2,Win32,60,right,0.794225,2,0.972185,0,58,58,149,1,stimuli/objects/mortarandpestle.jpg,right,new,310,,,,,,,,
,,,,,,,,4,2020-12-18_15h26.07.356,premce3DEU_ses-02_part-02_label-phase2,2020.1.2,Win32,60,left,1.226355,2,0.295135,0,59,59,76,1,stimuli/objects/statue.jpg,right,new,237,,,,,,,,
,,,,,,,,4,2020-12-18_15h26.07.356,premce3DEU_ses-02_part-02_label-phase2,2020.1.2,Win32,60,left,1.15694,3,0.074895,0,60,60,127,1,stimuli/objects/shelf.jpg,right,new,288,,,,,,,,
,,,,,,,,4,2020-12-18_15h26.07.356,premce3DEU_ses-02_part-02_label-phase2,2020.1.2,Win32,60,right,0.53985,1,0.888275,0,61,61,91,1,stimuli/objects/shed02.jpg,right,new,252,,,,,,,,
,,,,,,,,4,2020-12-18_15h26.07.356,premce3DEU_ses-02_part-02_label-phase2,2020.1.2,Win32,60,right,0.64635,2,0.13412,0,62,62,78,1,stimuli/objects/hockeypuck.jpg,left,old,239,,,,,,,,
,,,,,,,,4,2020-12-18_15h26.07.356,premce3DEU_ses-02_part-02_label-phase2,2020.1.2,Win32,60,right,0.75938,3,0.042725,0,63,63,5,1,stimuli/objects/wheelchair.jpg,left,old,166,,,,,,,,
,,,,,,,,4,2020-12-18_15h26.07.356,premce3DEU_ses-02_part-02_label-phase2,2020.1.2,Win32,60,right,0.666915,4,0.302625,0,64,64,148,1,stimuli/objects/snowglobe.jpg,left,old,309,,,,,,,,
,,,,,,,,4,2020-12-18_15h26.07.356,premce3DEU_ses-02_part-02_label-phase2,2020.1.2,Win32,60,left,2.380775,2,0.51803,0,65,65,147,1,stimuli/objects/bleachers.jpg,left,old,308,,,,,,,,
,,,,,,,,4,2020-12-18_15h26.07.356,premce3DEU_ses-02_part-02_label-phase2,2020.1.2,Win32,60,right,1.25223,2,0.574245,0,66,66,159,1,stimuli/objects/footballhelmet.jpg,left,old,320,,,,,,,,
,,,,,,,,4,2020-12-18_15h26.07.356,premce3DEU_ses-02_part-02_label-phase2,2020.1.2,Win32,60,right,0.97061,1,0.281665,0,67,67,145,1,stimuli/objects/rooster.jpg,right,new,306,,,,,,,,
,,,,,,,,4,2020-12-18_15h26.07.356,premce3DEU_ses-02_part-02_label-phase2,2020.1.2,Win32,60,right,0.601095,2,0.23718,0,68,68,134,1,stimuli/objects/bikelock.jpg,right,new,295,,,,,,,,
,,,,,,,,4,2020-12-18_15h26.07.356,premce3DEU_ses-02_part-02_label-phase2,2020.1.2,Win32,60,right,0.94334,1,0.0537,0,69,69,92,1,stimuli/objects/mirror02.jpg,left,old,253,,,,,,,,
,,,,,,,,4,2020-12-18_15h26.07.356,premce3DEU_ses-02_part-02_label-phase2,2020.1.2,Win32,60,right,0.68573,3,0.2456,0,70,70,90,1,stimuli/objects/battleaxe.jpg,left,old,251,,,,,,,,
,,,,,,,,4,2020-12-18_15h26.07.356,premce3DEU_ses-02_part-02_label-phase2,2020.1.2,Win32,60,right,0.555205,3,0.343885,0,71,71,144,1,stimuli/objects/walkietalkie.jpg,right,new,305,,,,,,,,
,,,,,,,,4,2020-12-18_15h26.07.356,premce3DEU_ses-02_part-02_label-phase2,2020.1.2,Win32,60,left,0.877665,2,0.286775,0,72,72,154,1,stimuli/objects/frisbee.jpg,left,old,315,,,,,,,,
,,,,,,,,4,2020-12-18_15h26.07.356,premce3DEU_ses-02_part-02_label-phase2,2020.1.2,Win32,60,right,0.86752,3,0.60751,0,73,73,10,1,stimuli/objects/spicerack.jpg,left,old,171,,,,,,,,
,,,,,,,,4,2020-12-18_15h26.07.356,premce3DEU_ses-02_part-02_label-phase2,2020.1.2,Win32,60,left,1.0952,1,0.573085,0,74,74,13,1,stimuli/objects/sailboat.jpg,left,old,174,,,,,,,,
,,,,,,,,4,2020-12-18_15h26.07.356,premce3DEU_ses-02_part-02_label-phase2,2020.1.2,Win32,60,left,1.24281,4,0.154855,0,75,75,41,1,stimuli/objects/zebra.jpg,left,old,202,,,,,,,,
,,,,,,,,4,2020-12-18_15h26.07.356,premce3DEU_ses-02_part-02_label-phase2,2020.1.2,Win32,60,right,0.90634,2,0.0748,0,76,76,58,1,stimuli/objects/tricycle.jpg,left,old,219,,,,,,,,
,,,,,,,,4,2020-12-18_15h26.07.356,premce3DEU_ses-02_part-02_label-phase2,2020.1.2,Win32,60,right,0.749635,2,0.28432,0,77,77,70,1,stimuli/objects/cormorant.jpg,right,new,231,,,,,,,,
,,,,,,,,4,2020-12-18_15h26.07.356,premce3DEU_ses-02_part-02_label-phase2,2020.1.2,Win32,60,right,0.62197,2,0.090375,0,78,78,100,1,stimuli/objects/doubledoors.jpg,left,old,261,,,,,,,,
,,,,,,,,4,2020-12-18_15h26.07.356,premce3DEU_ses-02_part-02_label-phase2,2020.1.2,Win32,60,left,1.93263,1,0.02209,0,79,79,81,1,stimuli/objects/raccoon.jpg,right,new,242,,,,,,,,
,,,,,,,,4,2020-12-18_15h26.07.356,premce3DEU_ses-02_part-02_label-phase2,2020.1.2,Win32,60,right,0.88831,3,0.625485,0,80,80,133,1,stimuli/objects/kiwi03.jpg,right,new,294,,,,,,,,
,,,,,,,,4,2020-12-18_15h26.07.356,premce3DEU_ses-02_part-02_label-phase2,2020.1.2,Win32,60,right,0.98159,3,0.29072,0,81,81,82,1,stimuli/objects/duck01.jpg,left,old,243,,,,,,,,
,,,,,,,,4,2020-12-18_15h26.07.356,premce3DEU_ses-02_part-02_label-phase2,2020.1.2,Win32,60,left,0.84042,3,0.14117,0,82,82,52,1,stimuli/objects/acorn.jpg,left,old,213,,,,,,,,
,,,,,,,,4,2020-12-18_15h26.07.356,premce3DEU_ses-02_part-02_label-phase2,2020.1.2,Win32,60,right,0.679565,2,0.089715,0,83,83,59,1,stimuli/objects/nosmokingsign.jpg,right,new,220,,,,,,,,
,,,,,,,,4,2020-12-18_15h26.07.356,premce3DEU_ses-02_part-02_label-phase2,2020.1.2,Win32,60,right,0.64077,2,0.00068,0,84,84,50,1,stimuli/objects/cowbell.jpg,right,new,211,,,,,,,,
,,,,,,,,4,2020-12-18_15h26.07.356,premce3DEU_ses-02_part-02_label-phase2,2020.1.2,Win32,60,right,0.73075,3,0.389545,0,85,85,27,1,stimuli/objects/tombstone.jpg,right,new,188,,,,,,,,
,,,,,,,,4,2020-12-18_15h26.07.356,premce3DEU_ses-02_part-02_label-phase2,2020.1.2,Win32,60,right,0.75423,2,0.940275,0,86,86,93,1,stimuli/objects/slushiemachine.jpg,right,new,254,,,,,,,,
,,,,,,,,4,2020-12-18_15h26.07.356,premce3DEU_ses-02_part-02_label-phase2,2020.1.2,Win32,60,left,0.747165,3,0.077125,0,87,87,42,1,stimuli/objects/asianelephant.jpg,left,old,203,,,,,,,,
,,,,,,,,4,2020-12-18_15h26.07.356,premce3DEU_ses-02_part-02_label-phase2,2020.1.2,Win32,60,right,0.7155,2,0.30598,0,88,88,153,1,stimuli/objects/fluorescentlightbulb.jpg,left,old,314,,,,,,,,
,,,,,,,,4,2020-12-18_15h26.07.356,premce3DEU_ses-02_part-02_label-phase2,2020.1.2,Win32,60,right,0.95578,1,0.71496,0,89,89,139,1,stimuli/objects/locomotive.jpg,left,old,300,,,,,,,,
,,,,,,,,4,2020-12-18_15h26.07.356,premce3DEU_ses-02_part-02_label-phase2,2020.1.2,Win32,60,right,0.831865,1,0.11303,0,90,90,135,1,stimuli/objects/penguin.jpg,right,new,296,,,,,,,,
,,,,,,,,4,2020-12-18_15h26.07.356,premce3DEU_ses-02_part-02_label-phase2,2020.1.2,Win32,60,left,1.098055,1,0.000655,0,91,91,80,1,stimuli/objects/floorlamp.jpg,right,new,241,,,,,,,,
,,,,,,,,4,2020-12-18_15h26.07.356,premce3DEU_ses-02_part-02_label-phase2,2020.1.2,Win32,60,right,0.875575,1,0.036285,0,92,92,118,1,stimuli/objects/wallclock.jpg,right,new,279,,,,,,,,
,,,,,,,,4,2020-12-18_15h26.07.356,premce3DEU_ses-02_part-02_label-phase2,2020.1.2,Win32,60,right,1.16285,2,0.155305,0,93,93,40,1,stimuli/objects/beehive.jpg,right,new,201,,,,,,,,
,,,,,,,,4,2020-12-18_15h26.07.356,premce3DEU_ses-02_part-02_label-phase2,2020.1.2,Win32,60,left,0.83787,4,0.00074,0,94,94,111,1,stimuli/objects/jellybean.jpg,left,old,272,,,,,,,,
,,,,,,,,4,2020-12-18_15h26.07.356,premce3DEU_ses-02_part-02_label-phase2,2020.1.2,Win32,60,right,0.6502,1,0.185835,0,95,95,74,1,stimuli/objects/turnstile.jpg,right,new,235,,,,,,,,
,,,,,,,,4,2020-12-18_15h26.07.356,premce3DEU_ses-02_part-02_label-phase2,2020.1.2,Win32,60,left,0.848235,4,0.40686,0,96,96,108,1,stimuli/objects/cork02.jpg,left,old,269,,,,,,,,
,,,,,,,,4,2020-12-18_15h26.07.356,premce3DEU_ses-02_part-02_label-phase2,2020.1.2,Win32,60,left,0.74247,4,0.05106,0,97,97,79,1,stimuli/objects/polarbear.jpg,left,old,240,,,,,,,,
,,,,,,,,4,2020-12-18_15h26.07.356,premce3DEU_ses-02_part-02_label-phase2,2020.1.2,Win32,60,right,1.362625,2,0.9004,0,98,98,21,1,stimuli/objects/gorilla.jpg,right,new,182,,,,,,,,
,,,,,,,,4,2020-12-18_15h26.07.356,premce3DEU_ses-02_part-02_label-phase2,2020.1.2,Win32,60,right,0.815475,2,0.24228,0,99,99,3,1,stimuli/objects/bathtub.jpg,left,old,164,,,,,,,,
,,,,,,,,4,2020-12-18_15h26.07.356,premce3DEU_ses-02_part-02_label-phase2,2020.1.2,Win32,60,right,0.78105,1,0.63521,0,100,100,87,1,stimuli/objects/chipmunk.jpg,left,old,248,,,,,,,,
,,,,,,,,4,2020-12-18_15h26.07.356,premce3DEU_ses-02_part-02_label-phase2,2020.1.2,Win32,60,right,1.35473,3,0.90758,0,101,101,112,1,stimuli/objects/hotdog.jpg,left,old,273,,,,,,,,
,,,,,,,,4,2020-12-18_15h26.07.356,premce3DEU_ses-02_part-02_label-phase2,2020.1.2,Win32,60,right,0.834675,3,0.371625,0,102,102,46,1,stimuli/objects/kneepad01c.jpg,right,new,207,,,,,,,,
,,,,,,,,4,2020-12-18_15h26.07.356,premce3DEU_ses-02_part-02_label-phase2,2020.1.2,Win32,60,left,0.79111,3,0.052725,0,103,103,47,1,stimuli/objects/candycane01a.jpg,left,old,208,,,,,,,,
,,,,,,,,4,2020-12-18_15h26.07.356,premce3DEU_ses-02_part-02_label-phase2,2020.1.2,Win32,60,right,1.17254,1,0.8676,0,104,104,45,1,stimuli/objects/siamesecat.jpg,right,new,206,,,,,,,,
,,,,,,,,4,2020-12-18_15h26.07.356,premce3DEU_ses-02_part-02_label-phase2,2020.1.2,Win32,60,right,0.762735,1,0.00619,0,105,105,9,1,stimuli/objects/flag.jpg,right,new,170,,,,,,,,
,,,,,,,,4,2020-12-18_15h26.07.356,premce3DEU_ses-02_part-02_label-phase2,2020.1.2,Win32,60,left,0.72639,3,0.072425,0,106,106,11,1,stimuli/objects/dolphin01.jpg,left,old,172,,,,,,,,
,,,,,,,,4,2020-12-18_15h26.07.356,premce3DEU_ses-02_part-02_label-phase2,2020.1.2,Win32,60,right,0.653265,1,0.694135,0,107,107,126,1,stimuli/objects/birdfeeder.jpg,left,old,287,,,,,,,,
,,,,,,,,4,2020-12-18_15h26.07.356,premce3DEU_ses-02_part-02_label-phase2,2020.1.2,Win32,60,right,0.83714,1,0.135225,0,108,108,68,1,stimuli/objects/drumset.jpg,right,new,229,,,,,,,,
,,,,,,,,4,2020-12-18_15h26.07.356,premce3DEU_ses-02_part-02_label-phase2,2020.1.2,Win32,60,left,0.691555,3,0.633715,0,109,109,96,1,stimuli/objects/hockeystick.jpg,left,old,257,,,,,,,,
,,,,,,,,4,2020-12-18_15h26.07.356,premce3DEU_ses-02_part-02_label-phase2,2020.1.2,Win32,60,left,2.30008,2,0.11278,0,110,110,23,1,stimuli/objects/graduationcap.jpg,right,new,184,,,,,,,,
,,,,,,,,4,2020-12-18_15h26.07.356,premce3DEU_ses-02_part-02_label-phase2,2020.1.2,Win32,60,right,1.053185,4,0.705845,0,111,111,44,1,stimuli/objects/donut.jpg,left,old,205,,,,,,,,
,,,,,,,,4,2020-12-18_15h26.07.356,premce3DEU_ses-02_part-02_label-phase2,2020.1.2,Win32,60,left,0.85256,1,1.596555,0,112,112,20,1,stimuli/objects/toysoldier01b.jpg,right,new,181,,,,,,,,
,,,,,,,,4,2020-12-18_15h26.07.356,premce3DEU_ses-02_part-02_label-phase2,2020.1.2,Win32,60,left,1.023485,2,0.289935,0,113,113,26,1,stimuli/objects/schoolbus.jpg,right,new,187,,,,,,,,
,,,,,,,,4,2020-12-18_15h26.07.356,premce3DEU_ses-02_part-02_label-phase2,2020.1.2,Win32,60,right,1.48528,3,0.34091,0,114,114,55,1,stimuli/objects/dogsled.jpg,left,old,216,,,,,,,,
,,,,,,,,4,2020-12-18_15h26.07.356,premce3DEU_ses-02_part-02_label-phase2,2020.1.2,Win32,60,left,0.86453,4,0.20954,0,115,115,125,1,stimuli/objects/whiteout.jpg,left,old,286,,,,,,,,
,,,,,,,,4,2020-12-18_15h26.07.356,premce3DEU_ses-02_part-02_label-phase2,2020.1.2,Win32,60,left,0.81902,3,0.13216,0,116,116,86,1,stimuli/objects/trafficlight.jpg,left,old,247,,,,,,,,
,,,,,,,,4,2020-12-18_15h26.07.356,premce3DEU_ses-02_part-02_label-phase2,2020.1.2,Win32,60,right,1.48139,2,0.144225,0,117,117,22,1,stimuli/objects/crab01.jpg,left,old,183,,,,,,,,
,,,,,,,,4,2020-12-18_15h26.07.356,premce3DEU_ses-02_part-02_label-phase2,2020.1.2,Win32,60,left,0.875005,2,0.372905,0,118,118,128,1,stimuli/objects/chime.jpg,left,old,289,,,,,,,,
,,,,,,,,4,2020-12-18_15h26.07.356,premce3DEU_ses-02_part-02_label-phase2,2020.1.2,Win32,60,left,0.6198,1,0.43928,0,119,119,69,1,stimuli/objects/bumpercar.jpg,right,new,230,,,,,,,,
,,,,,,,,4,2020-12-18_15h26.07.356,premce3DEU_ses-02_part-02_label-phase2,2020.1.2,Win32,60,left,0.695785,4,0.100545,0,120,120,16,1,stimuli/objects/dartboard.jpg,left,old,177,,,,,,,,
,,,,,,,,4,2020-12-18_15h26.07.356,premce3DEU_ses-02_part-02_label-phase2,2020.1.2,Win32,60,left,1.199595,3,0.1885,0,121,121,39,1,stimuli/objects/desktopcomputer.jpg,left,old,200,,,,,,,,
,,,,,,,,4,2020-12-18_15h26.07.356,premce3DEU_ses-02_part-02_label-phase2,2020.1.2,Win32,60,right,0.79159,3,0.4345,0,122,122,121,1,stimuli/objects/shield02.jpg,right,new,282,,,,,,,,
,,,,,,,,4,2020-12-18_15h26.07.356,premce3DEU_ses-02_part-02_label-phase2,2020.1.2,Win32,60,right,1.48539,1,0.03565,0,123,123,17,1,stimuli/objects/saltshaker03a.jpg,right,new,178,,,,,,,,
,,,,,,,,4,2020-12-18_15h26.07.356,premce3DEU_ses-02_part-02_label-phase2,2020.1.2,Win32,60,right,0.792585,3,0.2994,0,124,124,64,1,stimuli/objects/trojanhorse.jpg,right,new,225,,,,,,,,
,,,,,,,,4,2020-12-18_15h26.07.356,premce3DEU_ses-02_part-02_label-phase2,2020.1.2,Win32,60,right,1.003035,1,0.4996,0,125,125,98,1,stimuli/objects/cashregister01.jpg,left,old,259,,,,,,,,
,,,,,,,,4,2020-12-18_15h26.07.356,premce3DEU_ses-02_part-02_label-phase2,2020.1.2,Win32,60,right,1.1215,2,0.35487,0,126,126,63,1,stimuli/objects/pin.jpg,right,new,224,,,,,,,,
,,,,,,,,4,2020-12-18_15h26.07.356,premce3DEU_ses-02_part-02_label-phase2,2020.1.2,Win32,60,right,2.14908,4,0.155405,0,127,127,122,1,stimuli/objects/lip.jpg,right,new,283,,,,,,,,
,,,,,,,,4,2020-12-18_15h26.07.356,premce3DEU_ses-02_part-02_label-phase2,2020.1.2,Win32,60,right,0.855615,1,1.3239,0,128,128,140,1,stimuli/objects/treadmill.jpg,left,old,301,,,,,,,,
,,,,,,,,4,2020-12-18_15h26.07.356,premce3DEU_ses-02_part-02_label-phase2,2020.1.2,Win32,60,left,1.082025,1,0.192605,0,129,129,83,1,stimuli/objects/recyclingbin.jpg,left,old,244,,,,,,,,
,,,,,,,,4,2020-12-18_15h26.07.356,premce3DEU_ses-02_part-02_label-phase2,2020.1.2,Win32,60,left,1.024415,2,0.005985,0,130,130,51,1,stimuli/objects/kangaroo01.jpg,right,new,212,,,,,,,,
,,,,,,,,4,2020-12-18_15h26.07.356,premce3DEU_ses-02_part-02_label-phase2,2020.1.2,Win32,60,right,1.05191,1,0.09507,0,131,131,152,1,stimuli/objects/harmonica.jpg,right,new,313,,,,,,,,
,,,,,,,,4,2020-12-18_15h26.07.356,premce3DEU_ses-02_part-02_label-phase2,2020.1.2,Win32,60,right,1.94496,4,0.5458,0,132,132,137,1,stimuli/objects/waterfall.jpg,right,new,298,,,,,,,,
,,,,,,,,4,2020-12-18_15h26.07.356,premce3DEU_ses-02_part-02_label-phase2,2020.1.2,Win32,60,left,1.149605,2,0.107855,0,133,133,123,1,stimuli/objects/ironingboard01.jpg,left,old,284,,,,,,,,
,,,,,,,,4,2020-12-18_15h26.07.356,premce3DEU_ses-02_part-02_label-phase2,2020.1.2,Win32,60,right,0.9596,2,0.327685,0,134,134,32,1,stimuli/objects/cross01.jpg,right,new,193,,,,,,,,
,,,,,,,,4,2020-12-18_15h26.07.356,premce3DEU_ses-02_part-02_label-phase2,2020.1.2,Win32,60,left,0.94967,2,0.152585,0,135,135,97,1,stimuli/objects/greywolf.jpg,left,old,258,,,,,,,,
,,,,,,,,4,2020-12-18_15h26.07.356,premce3DEU_ses-02_part-02_label-phase2,2020.1.2,Win32,60,left,0.763265,3,0.0268,0,136,136,49,1,stimuli/objects/surfboard.jpg,left,old,210,,,,,,,,
,,,,,,,,4,2020-12-18_15h26.07.356,premce3DEU_ses-02_part-02_label-phase2,2020.1.2,Win32,60,right,0.912895,1,0.08934,0,137,137,6,1,stimuli/objects/popcorn.jpg,right,new,167,,,,,,,,
,,,,,,,,4,2020-12-18_15h26.07.356,premce3DEU_ses-02_part-02_label-phase2,2020.1.2,Win32,60,left,0.866315,4,0.45526,0,138,138,151,1,stimuli/objects/jellyfish.jpg,left,old,312,,,,,,,,
,,,,,,,,4,2020-12-18_15h26.07.356,premce3DEU_ses-02_part-02_label-phase2,2020.1.2,Win32,60,right,0.929235,2,0.098455,0,139,139,120,1,stimuli/objects/airhockeytable.jpg,right,new,281,,,,,,,,
,,,,,,,,4,2020-12-18_15h26.07.356,premce3DEU_ses-02_part-02_label-phase2,2020.1.2,Win32,60,left,0.802765,3,0.03624,0,140,140,158,1,stimuli/objects/bowrake.jpg,right,new,319,,,,,,,,
,,,,,,,,4,2020-12-18_15h26.07.356,premce3DEU_ses-02_part-02_label-phase2,2020.1.2,Win32,60,left,0.70211,4,0.057325,0,141,141,0,1,stimuli/objects/hulahoop.jpg,left,old,161,,,,,,,,
,,,,,,,,4,2020-12-18_15h26.07.356,premce3DEU_ses-02_part-02_label-phase2,2020.1.2,Win32,60,right,0.8578,2,0.026775,0,142,142,99,1,stimuli/objects/bacon.jpg,left,old,260,,,,,,,,
,,,,,,,,4,2020-12-18_15h26.07.356,premce3DEU_ses-02_part-02_label-phase2,2020.1.2,Win32,60,right,0.914805,1,0.440005,0,143,143,1,1,stimuli/objects/tent.jpg,left,old,162,,,,,,,,
,,,,,,,,4,2020-12-18_15h26.07.356,premce3DEU_ses-02_part-02_label-phase2,2020.1.2,Win32,60,left,0.849845,1,0.2584,0,144,144,106,1,stimuli/objects/squirrel.jpg,right,new,267,,,,,,,,
,,,,,,,,4,2020-12-18_15h26.07.356,premce3DEU_ses-02_part-02_label-phase2,2020.1.2,Win32,60,left,0.85731,3,0.000715,0,145,145,119,1,stimuli/objects/sandbarshark.jpg,right,new,280,,,,,,,,
,,,,,,,,4,2020-12-18_15h26.07.356,premce3DEU_ses-02_part-02_label-phase2,2020.1.2,Win32,60,left,1.295395,1,0.10778,0,146,146,54,1,stimuli/objects/acousticguitar02.jpg,right,new,215,,,,,,,,
,,,,,,,,4,2020-12-18_15h26.07.356,premce3DEU_ses-02_part-02_label-phase2,2020.1.2,Win32,60,right,0.702465,3,0.29075,0,147,147,53,1,stimuli/objects/parachute.jpg,right,new,214,,,,,,,,
,,,,,,,,4,2020-12-18_15h26.07.356,premce3DEU_ses-02_part-02_label-phase2,2020.1.2,Win32,60,right,0.83542,3,0.000655,0,148,148,48,1,stimuli/objects/rubikcube.jpg,right,new,209,,,,,,,,
,,,,,,,,4,2020-12-18_15h26.07.356,premce3DEU_ses-02_part-02_label-phase2,2020.1.2,Win32,60,right,0.669825,3,0.05475,0,149,149,43,1,stimuli/objects/poolcue.jpg,right,new,204,,,,,,,,
,,,,,,,,4,2020-12-18_15h26.07.356,premce3DEU_ses-02_part-02_label-phase2,2020.1.2,Win32,60,left,1.08266,1,0.11758,0,150,150,67,1,stimuli/objects/snowshovel.jpg,left,old,228,,,,,,,,
,,,,,,,,4,2020-12-18_15h26.07.356,premce3DEU_ses-02_part-02_label-phase2,2020.1.2,Win32,60,right,0.988805,3,0.28862,0,151,151,38,1,stimuli/objects/bread.jpg,right,new,199,,,,,,,,
,,,,,,,,4,2020-12-18_15h26.07.356,premce3DEU_ses-02_part-02_label-phase2,2020.1.2,Win32,60,right,1.994735,2,0.075295,0,152,152,124,1,stimuli/objects/swing.jpg,right,new,285,,,,,,,,
,,,,,,,,4,2020-12-18_15h26.07.356,premce3DEU_ses-02_part-02_label-phase2,2020.1.2,Win32,60,right,0.867025,1,0.019885,0,153,153,75,1,stimuli/objects/bookshelf.jpg,left,old,236,,,,,,,,
,,,,,,,,4,2020-12-18_15h26.07.356,premce3DEU_ses-02_part-02_label-phase2,2020.1.2,Win32,60,left,0.830555,3,0.438215,0,154,154,15,1,stimuli/objects/stool01.jpg,left,old,176,,,,,,,,
,,,,,,,,4,2020-12-18_15h26.07.356,premce3DEU_ses-02_part-02_label-phase2,2020.1.2,Win32,60,right,0.81276,2,0.01782,0,155,155,25,1,stimuli/objects/scooter.jpg,right,new,186,,,,,,,,
,,,,,,,,4,2020-12-18_15h26.07.356,premce3DEU_ses-02_part-02_label-phase2,2020.1.2,Win32,60,right,1.008705,2,0.02865,0,156,156,143,1,stimuli/objects/taxisign.jpg,right,new,304,,,,,,,,
,,,,,,,,4,2020-12-18_15h26.07.356,premce3DEU_ses-02_part-02_label-phase2,2020.1.2,Win32,60,right,0.906285,2,0.05219,0,157,157,109,1,stimuli/objects/spiderweb.jpg,right,new,270,,,,,,,,
,,,,,,,,4,2020-12-18_15h26.07.356,premce3DEU_ses-02_part-02_label-phase2,2020.1.2,Win32,60,right,0.510585,2,0.283295,0,158,158,66,1,stimuli/objects/tricornhat.jpg,right,new,227,,,,,,,,
,,,,,,,,4,2020-12-18_15h26.07.356,premce3DEU_ses-02_part-02_label-phase2,2020.1.2,Win32,60,left,1.248775,2,0.15376,0,159,159,138,1,stimuli/objects/ladybug03.jpg,right,new,299,,,,,,,,
,,,,,,,,4,2020-12-18_15h26.07.356,premce3DEU_ses-02_part-02_label-phase2,2020.1.2,Win32,60,,,,,,,,,,,,,,space,4.262375,0,1,1,1,1,ImagesforRecog2.csv
