Instr_resp_2.keys,Instr_resp_2.rt,warmup_resp.keys,warmup_resp.corr,warmup_resp.rt,myownaccuracy,respcorrs,myownaccuracyCORR,trials.thisRepN,trials.thisTrialN,trials.thisN,trials.thisIndex,trials.ran,first_butterfly,second_butterfly,Cue,left_flower,top_flower,bottom_flower,right_flower,corr_ans,obj_file,trial_cond,switch_cond,cuedButter,trial_type,participant,date,expName,psychopyVersion,OS,frameRate,Instr_resp.keys,Instr_resp.rt,taskGoresp.keys,taskGoresp.rt,task_resp_3.keys,task_resp_3.corr,task_resp_3.rt,task_loop.thisRepN,task_loop.thisTrialN,task_loop.thisN,task_loop.thisIndex,task_loop.ran,list_loop.thisRepN,list_loop.thisTrialN,list_loop.thisN,list_loop.thisIndex,list_loop.ran,list,key_resp.keys,key_resp.rt
space,56.158,up,0,2.348,0,[],0,0,0,0,12,1,stimuli/white_butterfly.png,stimuli/grey_butterfly.png,1,stimuli/yellow_flower.png,stimuli/red_flower.png,stimuli/blue_flower.png,stimuli/green_flower.png,down,stimuli/objects/toolbox02.jpg,1,99,stimuli/white_butterfly.png,1,5,2020-12-18_16h20.43.465,premce3DEU_ses-02_part-01_label-phase1,2020.1.2,MacIntel,60,,,,,,,,,,,,,,,,,,,,
,,right,1,1.28,1,[0],1,0,1,1,6,1,stimuli/grey_butterfly.png,stimuli/white_butterfly.png,1,stimuli/green_flower.png,stimuli/yellow_flower.png,stimuli/blue_flower.png,stimuli/red_flower.png,right,stimuli/objects/flipflop01b.jpg,1,99,stimuli/grey_butterfly.png,0,5,2020-12-18_16h20.43.465,premce3DEU_ses-02_part-01_label-phase1,2020.1.2,MacIntel,60,,,,,,,,,,,,,,,,,,,,
,,right,1,1,1,"[0,1]",1,0,2,2,4,1,stimuli/white_butterfly.png,stimuli/grey_butterfly.png,1,stimuli/green_flower.png,stimuli/red_flower.png,stimuli/yellow_flower.png,stimuli/blue_flower.png,right,stimuli/objects/tire.jpg,1,99,stimuli/white_butterfly.png,0,5,2020-12-18_16h20.43.465,premce3DEU_ses-02_part-01_label-phase1,2020.1.2,MacIntel,60,,,,,,,,,,,,,,,,,,,,
,,down,0,1.123,0,"[0,1,1]",0,0,3,3,15,1,stimuli/grey_butterfly.png,stimuli/white_butterfly.png,1,stimuli/red_flower.png,stimuli/yellow_flower.png,stimuli/blue_flower.png,stimuli/green_flower.png,left,stimuli/objects/wheat.jpg,1,99,stimuli/grey_butterfly.png,1,5,2020-12-18_16h20.43.465,premce3DEU_ses-02_part-01_label-phase1,2020.1.2,MacIntel,60,,,,,,,,,,,,,,,,,,,,
,,left,0,1.86,0,"[0,1,1,0]",0,0,4,4,18,1,stimuli/grey_butterfly.png,stimuli/white_butterfly.png,2,stimuli/blue_flower.png,stimuli/yellow_flower.png,stimuli/green_flower.png,stimuli/red_flower.png,up,stimuli/objects/armadillo.jpg,0,99,stimuli/white_butterfly.png,1,5,2020-12-18_16h20.43.465,premce3DEU_ses-02_part-01_label-phase1,2020.1.2,MacIntel,60,,,,,,,,,,,,,,,,,,,,
,,right,0,0.91,0,"[0,1,1,0]",0,0,5,5,11,1,stimuli/white_butterfly.png,stimuli/grey_butterfly.png,2,stimuli/blue_flower.png,stimuli/green_flower.png,stimuli/yellow_flower.png,stimuli/red_flower.png,left,stimuli/objects/bookshelf.jpg,0,99,stimuli/grey_butterfly.png,1,5,2020-12-18_16h20.43.465,premce3DEU_ses-02_part-01_label-phase1,2020.1.2,MacIntel,60,,,,,,,,,,,,,,,,,,,,
,,up,0,0.997,0,"[0,1,1,0]",0,0,6,6,0,1,stimuli/grey_butterfly.png,stimuli/white_butterfly.png,2,stimuli/green_flower.png,stimuli/red_flower.png,stimuli/yellow_flower.png,stimuli/blue_flower.png,right,stimuli/objects/tennisracket.jpg,1,99,stimuli/white_butterfly.png,0,5,2020-12-18_16h20.43.465,premce3DEU_ses-02_part-01_label-phase1,2020.1.2,MacIntel,60,,,,,,,,,,,,,,,,,,,,
,,left,0,1.739,0,"[0,1,1,0,0]",0,0,7,7,14,1,stimuli/grey_butterfly.png,stimuli/white_butterfly.png,1,stimuli/blue_flower.png,stimuli/red_flower.png,stimuli/yellow_flower.png,stimuli/green_flower.png,up,stimuli/objects/shed02.jpg,1,99,stimuli/grey_butterfly.png,1,5,2020-12-18_16h20.43.465,premce3DEU_ses-02_part-01_label-phase1,2020.1.2,MacIntel,60,,,,,,,,,,,,,,,,,,,,
,,right,1,0.709,1,"[0,1,1,0,0,0]",1,0,8,8,20,1,stimuli/white_butterfly.png,stimuli/grey_butterfly.png,2,stimuli/green_flower.png,stimuli/blue_flower.png,stimuli/yellow_flower.png,stimuli/red_flower.png,right,stimuli/objects/toucan.jpg,1,99,stimuli/grey_butterfly.png,1,5,2020-12-18_16h20.43.465,premce3DEU_ses-02_part-01_label-phase1,2020.1.2,MacIntel,60,,,,,,,,,,,,,,,,,,,,
,,down,0,1.06,0,"[0,1,1,0,0,0,1]",1,0,9,9,10,1,stimuli/white_butterfly.png,stimuli/grey_butterfly.png,1,stimuli/green_flower.png,stimuli/yellow_flower.png,stimuli/blue_flower.png,stimuli/red_flower.png,left,stimuli/objects/anchor.jpg,0,99,stimuli/white_butterfly.png,0,5,2020-12-18_16h20.43.465,premce3DEU_ses-02_part-01_label-phase1,2020.1.2,MacIntel,60,,,,,,,,,,,,,,,,,,,,
,,,0,,0,"[0,1,1,0,0,0,1]",0,0,10,10,17,1,stimuli/grey_butterfly.png,stimuli/white_butterfly.png,1,stimuli/red_flower.png,stimuli/green_flower.png,stimuli/yellow_flower.png,stimuli/blue_flower.png,down,stimuli/objects/butterfly4.jpg,0,99,stimuli/grey_butterfly.png,1,5,2020-12-18_16h20.43.465,premce3DEU_ses-02_part-01_label-phase1,2020.1.2,MacIntel,60,,,,,,,,,,,,,,,,,,,,
,,up,1,1.17,1,"[0,1,1,0,0,0,1]",1,0,11,11,19,1,stimuli/grey_butterfly.png,stimuli/white_butterfly.png,2,stimuli/yellow_flower.png,stimuli/blue_flower.png,stimuli/red_flower.png,stimuli/green_flower.png,up,stimuli/objects/motorcycle.jpg,1,99,stimuli/white_butterfly.png,1,5,2020-12-18_16h20.43.465,premce3DEU_ses-02_part-01_label-phase1,2020.1.2,MacIntel,60,,,,,,,,,,,,,,,,,,,,
,,right,1,0.852,1,"[0,1,1,0,0,0,1,1]",1,0,12,12,16,1,stimuli/grey_butterfly.png,stimuli/white_butterfly.png,2,stimuli/red_flower.png,stimuli/yellow_flower.png,stimuli/green_flower.png,stimuli/blue_flower.png,right,stimuli/objects/foosballtable.jpg,1,99,stimuli/white_butterfly.png,1,5,2020-12-18_16h20.43.465,premce3DEU_ses-02_part-01_label-phase1,2020.1.2,MacIntel,60,,,,,,,,,,,,,,,,,,,,
,,up,1,0.932,1,"[0,1,1,0,0,0,1,1,1]",1,0,13,13,1,1,stimuli/white_butterfly.png,stimuli/grey_butterfly.png,2,stimuli/yellow_flower.png,stimuli/red_flower.png,stimuli/blue_flower.png,stimuli/green_flower.png,up,stimuli/objects/marble.jpg,1,99,stimuli/grey_butterfly.png,0,5,2020-12-18_16h20.43.465,premce3DEU_ses-02_part-01_label-phase1,2020.1.2,MacIntel,60,,,,,,,,,,,,,,,,,,,,
,,left,0,0.958,0,"[0,1,1,0,0,0,1,1,1,1]",1,0,14,14,13,1,stimuli/grey_butterfly.png,stimuli/white_butterfly.png,2,stimuli/blue_flower.png,stimuli/red_flower.png,stimuli/yellow_flower.png,stimuli/green_flower.png,up,stimuli/objects/payphone.jpg,0,99,stimuli/white_butterfly.png,1,5,2020-12-18_16h20.43.465,premce3DEU_ses-02_part-01_label-phase1,2020.1.2,MacIntel,60,,,,,,,,,,,,,,,,,,,,
,,left,0,1.244,0,"[0,1,1,0,0,0,1,1,1,1]",0,0,15,15,7,1,stimuli/grey_butterfly.png,stimuli/white_butterfly.png,2,stimuli/red_flower.png,stimuli/green_flower.png,stimuli/blue_flower.png,stimuli/yellow_flower.png,down,stimuli/objects/firehydrant.jpg,1,99,stimuli/white_butterfly.png,0,5,2020-12-18_16h20.43.465,premce3DEU_ses-02_part-01_label-phase1,2020.1.2,MacIntel,60,,,,,,,,,,,,,,,,,,,,
,,down,1,1.382,1,"[0,1,1,0,0,0,1,1,1,1,0]",1,0,16,16,5,1,stimuli/white_butterfly.png,stimuli/grey_butterfly.png,1,stimuli/green_flower.png,stimuli/red_flower.png,stimuli/blue_flower.png,stimuli/yellow_flower.png,down,stimuli/objects/birdfeeder.jpg,1,99,stimuli/white_butterfly.png,0,5,2020-12-18_16h20.43.465,premce3DEU_ses-02_part-01_label-phase1,2020.1.2,MacIntel,60,,,,,,,,,,,,,,,,,,,,
,,up,1,0.748,1,"[0,1,1,0,0,0,1,1,1,1,0,1]",1,0,17,17,2,1,stimuli/white_butterfly.png,stimuli/grey_butterfly.png,2,stimuli/blue_flower.png,stimuli/red_flower.png,stimuli/yellow_flower.png,stimuli/green_flower.png,up,stimuli/objects/corn02.jpg,1,99,stimuli/grey_butterfly.png,0,5,2020-12-18_16h20.43.465,premce3DEU_ses-02_part-01_label-phase1,2020.1.2,MacIntel,60,,,,,,,,,,,,,,,,,,,,
,,down,0,0.955,0,"[0,1,1,0,0,0,1,1,1,1,0,1,1]",1,0,18,18,3,1,stimuli/white_butterfly.png,stimuli/grey_butterfly.png,2,stimuli/green_flower.png,stimuli/blue_flower.png,stimuli/red_flower.png,stimuli/yellow_flower.png,left,stimuli/objects/cigar.jpg,0,99,stimuli/grey_butterfly.png,0,5,2020-12-18_16h20.43.465,premce3DEU_ses-02_part-01_label-phase1,2020.1.2,MacIntel,60,,,,,,,,,,,,,,,,,,,,
,,left,1,0.861,1,"[0,1,1,0,0,0,1,1,1,1,0,1,1]",1,0,19,19,8,1,stimuli/white_butterfly.png,stimuli/grey_butterfly.png,2,stimuli/red_flower.png,stimuli/blue_flower.png,stimuli/green_flower.png,stimuli/yellow_flower.png,left,stimuli/objects/shelf.jpg,1,99,stimuli/grey_butterfly.png,0,5,2020-12-18_16h20.43.465,premce3DEU_ses-02_part-01_label-phase1,2020.1.2,MacIntel,60,,,,,,,,,,,,,,,,,,,,
,,down,0,1.568,0,"[0,1,1,0,0,0,1,1,1,1,0,1,1,1]",0,0,20,20,9,1,stimuli/white_butterfly.png,stimuli/grey_butterfly.png,1,stimuli/blue_flower.png,stimuli/red_flower.png,stimuli/yellow_flower.png,stimuli/green_flower.png,left,stimuli/objects/skunk.jpg,1,99,stimuli/white_butterfly.png,0,5,2020-12-18_16h20.43.465,premce3DEU_ses-02_part-01_label-phase1,2020.1.2,MacIntel,60,,,,,,,,,,,,,,,,,,,,
,,,,,1,"[0,1,1,0,0,0,1,1,1,1,0,1,1,1,0]",1,,,,,,stimuli/white_butterfly.png,stimuli/grey_butterfly.png,1,stimuli/blue_flower.png,stimuli/red_flower.png,stimuli/green_flower.png,stimuli/yellow_flower.png,left,stimuli/objects/vacuumcleaner01.jpg,1,2,stimuli/white_butterfly.png,0,5,2020-12-18_16h20.43.465,premce3DEU_ses-02_part-01_label-phase1,2020.1.2,MacIntel,60,space,7.839,space,2.138,left,1,2.03,0,0,0,0,1,,,,,,,,
,,,,,0,"[0,1,1,0,0,0,1,1,1,1,0,1,1,1,0,1]",1,,,,,,stimuli/grey_butterfly.png,stimuli/white_butterfly.png,2,stimuli/yellow_flower.png,stimuli/green_flower.png,stimuli/blue_flower.png,stimuli/red_flower.png,up,stimuli/objects/fingerprint.jpg,0,2,stimuli/white_butterfly.png,0,5,2020-12-18_16h20.43.465,premce3DEU_ses-02_part-01_label-phase1,2020.1.2,MacIntel,60,,,,,right,0,0.897,0,1,1,1,1,,,,,,,,
,,,,,1,"[0,1,1,0,0,0,1,1,1,1,0,1,1,1,0,1]",1,,,,,,stimuli/white_butterfly.png,stimuli/grey_butterfly.png,1,stimuli/green_flower.png,stimuli/blue_flower.png,stimuli/red_flower.png,stimuli/yellow_flower.png,down,stimuli/objects/treadmill.jpg,0,2,stimuli/white_butterfly.png,0,5,2020-12-18_16h20.43.465,premce3DEU_ses-02_part-01_label-phase1,2020.1.2,MacIntel,60,,,,,down,1,0.912,0,2,2,2,1,,,,,,,,
,,,,,0,"[0,1,1,0,0,0,1,1,1,1,0,1,1,1,0,1]",1,,,,,,stimuli/grey_butterfly.png,stimuli/white_butterfly.png,1,stimuli/yellow_flower.png,stimuli/green_flower.png,stimuli/red_flower.png,stimuli/blue_flower.png,left,stimuli/objects/aquarium.jpg,0,2,stimuli/grey_butterfly.png,0,5,2020-12-18_16h20.43.465,premce3DEU_ses-02_part-01_label-phase1,2020.1.2,MacIntel,60,,,,,up,0,1.019,0,3,3,3,1,,,,,,,,
,,,,,0,"[0,1,1,0,0,0,1,1,1,1,0,1,1,1,0,1]",0,,,,,,stimuli/grey_butterfly.png,stimuli/white_butterfly.png,2,stimuli/blue_flower.png,stimuli/red_flower.png,stimuli/yellow_flower.png,stimuli/green_flower.png,left,stimuli/objects/eyepatch.jpg,1,2,stimuli/white_butterfly.png,0,5,2020-12-18_16h20.43.465,premce3DEU_ses-02_part-01_label-phase1,2020.1.2,MacIntel,60,,,,,right,0,1.68,0,4,4,4,1,,,,,,,,
,,,,,0,"[0,1,1,0,0,0,1,1,1,1,0,1,1,1,0,1,0]",0,,,,,,stimuli/white_butterfly.png,stimuli/grey_butterfly.png,2,stimuli/yellow_flower.png,stimuli/green_flower.png,stimuli/red_flower.png,stimuli/blue_flower.png,down,stimuli/objects/dolphin01.jpg,1,2,stimuli/grey_butterfly.png,0,5,2020-12-18_16h20.43.465,premce3DEU_ses-02_part-01_label-phase1,2020.1.2,MacIntel,60,,,,,,0,,0,5,5,5,1,,,,,,,,
,,,,,0,"[0,1,1,0,0,0,1,1,1,1,0,1,1,1,0,1,0,0]",0,,,,,,stimuli/white_butterfly.png,stimuli/grey_butterfly.png,1,stimuli/green_flower.png,stimuli/yellow_flower.png,stimuli/red_flower.png,stimuli/blue_flower.png,right,stimuli/objects/monarchbutterfly.jpg,1,2,stimuli/white_butterfly.png,0,5,2020-12-18_16h20.43.465,premce3DEU_ses-02_part-01_label-phase1,2020.1.2,MacIntel,60,,,,,up,0,0.878,0,6,6,6,1,,,,,,,,
,,,,,0,"[0,1,1,0,0,0,1,1,1,1,0,1,1,1,0,1,0,0,0]",0,,,,,,stimuli/white_butterfly.png,stimuli/grey_butterfly.png,1,stimuli/blue_flower.png,stimuli/yellow_flower.png,stimuli/green_flower.png,stimuli/red_flower.png,left,stimuli/objects/gps.jpg,1,2,stimuli/white_butterfly.png,0,5,2020-12-18_16h20.43.465,premce3DEU_ses-02_part-01_label-phase1,2020.1.2,MacIntel,60,,,,,right,0,1.418,0,7,7,7,1,,,,,,,,
,,,,,1,"[0,1,1,0,0,0,1,1,1,1,0,1,1,1,0,1,0,0,0,0]",1,,,,,,stimuli/white_butterfly.png,stimuli/grey_butterfly.png,1,stimuli/red_flower.png,stimuli/yellow_flower.png,stimuli/green_flower.png,stimuli/blue_flower.png,right,stimuli/objects/trombone.jpg,1,2,stimuli/white_butterfly.png,0,5,2020-12-18_16h20.43.465,premce3DEU_ses-02_part-01_label-phase1,2020.1.2,MacIntel,60,,,,,right,1,2.089,0,8,8,8,1,,,,,,,,
,,,,,1,"[0,1,1,0,0,0,1,1,1,1,0,1,1,1,0,1,0,0,0,0,1]",1,,,,,,stimuli/grey_butterfly.png,stimuli/white_butterfly.png,1,stimuli/green_flower.png,stimuli/red_flower.png,stimuli/blue_flower.png,stimuli/yellow_flower.png,up,stimuli/objects/skihelmet01.jpg,1,2,stimuli/grey_butterfly.png,0,5,2020-12-18_16h20.43.465,premce3DEU_ses-02_part-01_label-phase1,2020.1.2,MacIntel,60,,,,,up,1,1.051,0,9,9,9,1,,,,,,,,
,,,,,0,"[0,1,1,0,0,0,1,1,1,1,0,1,1,1,0,1,0,0,0,0,1,1]",0,,,,,,stimuli/white_butterfly.png,stimuli/grey_butterfly.png,2,stimuli/green_flower.png,stimuli/blue_flower.png,stimuli/yellow_flower.png,stimuli/red_flower.png,right,stimuli/objects/winniethepooh.jpg,1,2,stimuli/grey_butterfly.png,0,5,2020-12-18_16h20.43.465,premce3DEU_ses-02_part-01_label-phase1,2020.1.2,MacIntel,60,,,,,down,0,1.175,0,10,10,10,1,,,,,,,,
,,,,,1,"[0,1,1,0,0,0,1,1,1,1,0,1,1,1,0,1,0,0,0,0,1,1,0]",1,,,,,,stimuli/grey_butterfly.png,stimuli/white_butterfly.png,2,stimuli/yellow_flower.png,stimuli/blue_flower.png,stimuli/red_flower.png,stimuli/green_flower.png,up,stimuli/objects/hulahoop.jpg,1,2,stimuli/white_butterfly.png,0,5,2020-12-18_16h20.43.465,premce3DEU_ses-02_part-01_label-phase1,2020.1.2,MacIntel,60,,,,,up,1,1.203,0,11,11,11,1,,,,,,,,
,,,,,0,"[0,1,1,0,0,0,1,1,1,1,0,1,1,1,0,1,0,0,0,0,1,1,0,1]",0,,,,,,stimuli/grey_butterfly.png,stimuli/white_butterfly.png,2,stimuli/green_flower.png,stimuli/red_flower.png,stimuli/blue_flower.png,stimuli/yellow_flower.png,down,stimuli/objects/snowman.jpg,1,2,stimuli/white_butterfly.png,0,5,2020-12-18_16h20.43.465,premce3DEU_ses-02_part-01_label-phase1,2020.1.2,MacIntel,60,,,,,right,0,1.656,0,12,12,12,1,,,,,,,,
,,,,,0,"[0,1,1,0,0,0,1,1,1,1,0,1,1,1,0,1,0,0,0,0,1,1,0,1,0]",0,,,,,,stimuli/grey_butterfly.png,stimuli/white_butterfly.png,1,stimuli/green_flower.png,stimuli/yellow_flower.png,stimuli/red_flower.png,stimuli/blue_flower.png,down,stimuli/objects/tricycle.jpg,1,2,stimuli/grey_butterfly.png,0,5,2020-12-18_16h20.43.465,premce3DEU_ses-02_part-01_label-phase1,2020.1.2,MacIntel,60,,,,,up,0,1.405,0,13,13,13,1,,,,,,,,
,,,,,0,"[0,1,1,0,0,0,1,1,1,1,0,1,1,1,0,1,0,0,0,0,1,1,0,1,0,0]",0,,,,,,stimuli/grey_butterfly.png,stimuli/white_butterfly.png,1,stimuli/red_flower.png,stimuli/green_flower.png,stimuli/blue_flower.png,stimuli/yellow_flower.png,left,stimuli/objects/whiteout.jpg,1,2,stimuli/grey_butterfly.png,0,5,2020-12-18_16h20.43.465,premce3DEU_ses-02_part-01_label-phase1,2020.1.2,MacIntel,60,,,,,down,0,1.866,0,14,14,14,1,,,,,,,,
,,,,,0,"[0,1,1,0,0,0,1,1,1,1,0,1,1,1,0,1,0,0,0,0,1,1,0,1,0,0,0]",0,,,,,,stimuli/white_butterfly.png,stimuli/grey_butterfly.png,2,stimuli/green_flower.png,stimuli/blue_flower.png,stimuli/red_flower.png,stimuli/yellow_flower.png,left,stimuli/objects/trafficlight.jpg,0,2,stimuli/grey_butterfly.png,0,5,2020-12-18_16h20.43.465,premce3DEU_ses-02_part-01_label-phase1,2020.1.2,MacIntel,60,,,,,down,0,0.851,0,15,15,15,1,,,,,,,,
,,,,,1,"[0,1,1,0,0,0,1,1,1,1,0,1,1,1,0,1,0,0,0,0,1,1,0,1,0,0,0]",1,,,,,,stimuli/grey_butterfly.png,stimuli/white_butterfly.png,2,stimuli/blue_flower.png,stimuli/green_flower.png,stimuli/red_flower.png,stimuli/yellow_flower.png,left,stimuli/objects/key07.jpg,1,2,stimuli/white_butterfly.png,0,5,2020-12-18_16h20.43.465,premce3DEU_ses-02_part-01_label-phase1,2020.1.2,MacIntel,60,,,,,left,1,1.266,0,16,16,16,1,,,,,,,,
,,,,,0,"[0,1,1,0,0,0,1,1,1,1,0,1,1,1,0,1,0,0,0,0,1,1,0,1,0,0,0,1]",0,,,,,,stimuli/grey_butterfly.png,stimuli/white_butterfly.png,2,stimuli/yellow_flower.png,stimuli/red_flower.png,stimuli/green_flower.png,stimuli/blue_flower.png,right,stimuli/objects/file.jpg,1,2,stimuli/white_butterfly.png,0,5,2020-12-18_16h20.43.465,premce3DEU_ses-02_part-01_label-phase1,2020.1.2,MacIntel,60,,,,,left,0,2.235,0,17,17,17,1,,,,,,,,
,,,,,1,"[0,1,1,0,0,0,1,1,1,1,0,1,1,1,0,1,0,0,0,0,1,1,0,1,0,0,0,1,0]",1,,,,,,stimuli/white_butterfly.png,stimuli/grey_butterfly.png,1,stimuli/red_flower.png,stimuli/blue_flower.png,stimuli/yellow_flower.png,stimuli/green_flower.png,up,stimuli/objects/butterfly5.jpg,1,2,stimuli/white_butterfly.png,0,5,2020-12-18_16h20.43.465,premce3DEU_ses-02_part-01_label-phase1,2020.1.2,MacIntel,60,,,,,up,1,2.221,0,18,18,18,1,,,,,,,,
,,,,,1,"[0,1,1,0,0,0,1,1,1,1,0,1,1,1,0,1,0,0,0,0,1,1,0,1,0,0,0,1,0,1]",1,,,,,,stimuli/grey_butterfly.png,stimuli/white_butterfly.png,1,stimuli/red_flower.png,stimuli/blue_flower.png,stimuli/green_flower.png,stimuli/yellow_flower.png,left,stimuli/objects/lionstatue.jpg,1,2,stimuli/grey_butterfly.png,0,5,2020-12-18_16h20.43.465,premce3DEU_ses-02_part-01_label-phase1,2020.1.2,MacIntel,60,,,,,left,1,0.821,0,19,19,19,1,,,,,,,,
,,,,,0,"[0,1,1,0,0,0,1,1,1,1,0,1,1,1,0,1,0,0,0,0,1,1,0,1,0,0,0,1,0,1,1]",1,,,,,,stimuli/white_butterfly.png,stimuli/grey_butterfly.png,2,stimuli/blue_flower.png,stimuli/green_flower.png,stimuli/yellow_flower.png,stimuli/red_flower.png,left,stimuli/objects/microwave.jpg,0,2,stimuli/grey_butterfly.png,0,5,2020-12-18_16h20.43.465,premce3DEU_ses-02_part-01_label-phase1,2020.1.2,MacIntel,60,,,,,right,0,2.082,0,20,20,20,1,,,,,,,,
,,,,,1,"[0,1,1,0,0,0,1,1,1,1,0,1,1,1,0,1,0,0,0,0,1,1,0,1,0,0,0,1,0,1,1]",1,,,,,,stimuli/grey_butterfly.png,stimuli/white_butterfly.png,1,stimuli/green_flower.png,stimuli/blue_flower.png,stimuli/red_flower.png,stimuli/yellow_flower.png,down,stimuli/objects/bleachers.jpg,1,2,stimuli/grey_butterfly.png,1,5,2020-12-18_16h20.43.465,premce3DEU_ses-02_part-01_label-phase1,2020.1.2,MacIntel,60,,,,,down,1,2.175,0,21,21,21,1,,,,,,,,
,,,,,1,"[0,1,1,0,0,0,1,1,1,1,0,1,1,1,0,1,0,0,0,0,1,1,0,1,0,0,0,1,0,1,1,1]",1,,,,,,stimuli/white_butterfly.png,stimuli/grey_butterfly.png,2,stimuli/yellow_flower.png,stimuli/red_flower.png,stimuli/green_flower.png,stimuli/blue_flower.png,up,stimuli/objects/ipad02.jpg,1,2,stimuli/grey_butterfly.png,1,5,2020-12-18_16h20.43.465,premce3DEU_ses-02_part-01_label-phase1,2020.1.2,MacIntel,60,,,,,up,1,1.276,0,22,22,22,1,,,,,,,,
,,,,,0,"[0,1,1,0,0,0,1,1,1,1,0,1,1,1,0,1,0,0,0,0,1,1,0,1,0,0,0,1,0,1,1,1,1]",0,,,,,,stimuli/grey_butterfly.png,stimuli/white_butterfly.png,1,stimuli/red_flower.png,stimuli/yellow_flower.png,stimuli/blue_flower.png,stimuli/green_flower.png,left,stimuli/objects/beerbottle.jpg,1,2,stimuli/grey_butterfly.png,1,5,2020-12-18_16h20.43.465,premce3DEU_ses-02_part-01_label-phase1,2020.1.2,MacIntel,60,,,,,down,0,0.961,0,23,23,23,1,,,,,,,,
,,,,,0,"[0,1,1,0,0,0,1,1,1,1,0,1,1,1,0,1,0,0,0,0,1,1,0,1,0,0,0,1,0,1,1,1,1,0]",0,,,,,,stimuli/grey_butterfly.png,stimuli/white_butterfly.png,2,stimuli/red_flower.png,stimuli/green_flower.png,stimuli/yellow_flower.png,stimuli/blue_flower.png,down,stimuli/objects/musicstand.jpg,0,2,stimuli/white_butterfly.png,1,5,2020-12-18_16h20.43.465,premce3DEU_ses-02_part-01_label-phase1,2020.1.2,MacIntel,60,,,,,right,0,0.787,0,24,24,24,1,,,,,,,,
,,,,,1,"[0,1,1,0,0,0,1,1,1,1,0,1,1,1,0,1,0,0,0,0,1,1,0,1,0,0,0,1,0,1,1,1,1,0]",1,,,,,,stimuli/white_butterfly.png,stimuli/grey_butterfly.png,2,stimuli/red_flower.png,stimuli/blue_flower.png,stimuli/yellow_flower.png,stimuli/green_flower.png,left,stimuli/objects/pumpkin.jpg,1,2,stimuli/grey_butterfly.png,1,5,2020-12-18_16h20.43.465,premce3DEU_ses-02_part-01_label-phase1,2020.1.2,MacIntel,60,,,,,left,1,0.67,0,25,25,25,1,,,,,,,,
,,,,,1,"[0,1,1,0,0,0,1,1,1,1,0,1,1,1,0,1,0,0,0,0,1,1,0,1,0,0,0,1,0,1,1,1,1,0,1]",1,,,,,,stimuli/grey_butterfly.png,stimuli/white_butterfly.png,1,stimuli/yellow_flower.png,stimuli/blue_flower.png,stimuli/green_flower.png,stimuli/red_flower.png,right,stimuli/objects/rollerblade.jpg,1,2,stimuli/grey_butterfly.png,1,5,2020-12-18_16h20.43.465,premce3DEU_ses-02_part-01_label-phase1,2020.1.2,MacIntel,60,,,,,right,1,1.313,0,26,26,26,1,,,,,,,,
,,,,,1,"[0,1,1,0,0,0,1,1,1,1,0,1,1,1,0,1,0,0,0,0,1,1,0,1,0,0,0,1,0,1,1,1,1,0,1,1]",1,,,,,,stimuli/white_butterfly.png,stimuli/grey_butterfly.png,2,stimuli/red_flower.png,stimuli/yellow_flower.png,stimuli/green_flower.png,stimuli/blue_flower.png,left,stimuli/objects/bowlingpin.jpg,1,2,stimuli/grey_butterfly.png,1,5,2020-12-18_16h20.43.465,premce3DEU_ses-02_part-01_label-phase1,2020.1.2,MacIntel,60,,,,,left,1,0.778,0,27,27,27,1,,,,,,,,
,,,,,1,"[0,1,1,0,0,0,1,1,1,1,0,1,1,1,0,1,0,0,0,0,1,1,0,1,0,0,0,1,0,1,1,1,1,0,1,1,1]",1,,,,,,stimuli/grey_butterfly.png,stimuli/white_butterfly.png,2,stimuli/blue_flower.png,stimuli/red_flower.png,stimuli/green_flower.png,stimuli/yellow_flower.png,left,stimuli/objects/blender.jpg,1,2,stimuli/white_butterfly.png,1,5,2020-12-18_16h20.43.465,premce3DEU_ses-02_part-01_label-phase1,2020.1.2,MacIntel,60,,,,,left,1,0.678,0,28,28,28,1,,,,,,,,
,,,,,1,"[0,1,1,0,0,0,1,1,1,1,0,1,1,1,0,1,0,0,0,0,1,1,0,1,0,0,0,1,0,1,1,1,1,0,1,1,1,1]",1,,,,,,stimuli/grey_butterfly.png,stimuli/white_butterfly.png,1,stimuli/green_flower.png,stimuli/red_flower.png,stimuli/yellow_flower.png,stimuli/blue_flower.png,up,stimuli/objects/christmaslights.jpg,1,2,stimuli/grey_butterfly.png,1,5,2020-12-18_16h20.43.465,premce3DEU_ses-02_part-01_label-phase1,2020.1.2,MacIntel,60,,,,,up,1,0.87,0,29,29,29,1,,,,,,,,
,,,,,1,"[0,1,1,0,0,0,1,1,1,1,0,1,1,1,0,1,0,0,0,0,1,1,0,1,0,0,0,1,0,1,1,1,1,0,1,1,1,1,1]",1,,,,,,stimuli/white_butterfly.png,stimuli/grey_butterfly.png,1,stimuli/green_flower.png,stimuli/red_flower.png,stimuli/yellow_flower.png,stimuli/blue_flower.png,right,stimuli/objects/granolabar01.jpg,1,2,stimuli/white_butterfly.png,1,5,2020-12-18_16h20.43.465,premce3DEU_ses-02_part-01_label-phase1,2020.1.2,MacIntel,60,,,,,right,1,0.683,0,30,30,30,1,,,,,,,,
,,,,,1,"[0,1,1,0,0,0,1,1,1,1,0,1,1,1,0,1,0,0,0,0,1,1,0,1,0,0,0,1,0,1,1,1,1,0,1,1,1,1,1,1]",1,,,,,,stimuli/white_butterfly.png,stimuli/grey_butterfly.png,2,stimuli/yellow_flower.png,stimuli/red_flower.png,stimuli/blue_flower.png,stimuli/green_flower.png,up,stimuli/objects/shower.jpg,1,2,stimuli/grey_butterfly.png,1,5,2020-12-18_16h20.43.465,premce3DEU_ses-02_part-01_label-phase1,2020.1.2,MacIntel,60,,,,,up,1,0.691,0,31,31,31,1,,,,,,,,
,,,,,1,"[0,1,1,0,0,0,1,1,1,1,0,1,1,1,0,1,0,0,0,0,1,1,0,1,0,0,0,1,0,1,1,1,1,0,1,1,1,1,1,1,1]",1,,,,,,stimuli/grey_butterfly.png,stimuli/white_butterfly.png,2,stimuli/blue_flower.png,stimuli/yellow_flower.png,stimuli/green_flower.png,stimuli/red_flower.png,left,stimuli/objects/sandcastle.jpg,1,2,stimuli/white_butterfly.png,1,5,2020-12-18_16h20.43.465,premce3DEU_ses-02_part-01_label-phase1,2020.1.2,MacIntel,60,,,,,left,1,1.136,0,32,32,32,1,,,,,,,,
,,,,,1,"[0,1,1,0,0,0,1,1,1,1,0,1,1,1,0,1,0,0,0,0,1,1,0,1,0,0,0,1,0,1,1,1,1,0,1,1,1,1,1,1,1,1]",1,,,,,,stimuli/grey_butterfly.png,stimuli/white_butterfly.png,1,stimuli/red_flower.png,stimuli/blue_flower.png,stimuli/yellow_flower.png,stimuli/green_flower.png,left,stimuli/objects/cookingpot.jpg,1,2,stimuli/grey_butterfly.png,1,5,2020-12-18_16h20.43.465,premce3DEU_ses-02_part-01_label-phase1,2020.1.2,MacIntel,60,,,,,left,1,1.208,0,33,33,33,1,,,,,,,,
,,,,,1,"[0,1,1,0,0,0,1,1,1,1,0,1,1,1,0,1,0,0,0,0,1,1,0,1,0,0,0,1,0,1,1,1,1,0,1,1,1,1,1,1,1,1,1]",1,,,,,,stimuli/grey_butterfly.png,stimuli/white_butterfly.png,2,stimuli/green_flower.png,stimuli/red_flower.png,stimuli/yellow_flower.png,stimuli/blue_flower.png,right,stimuli/objects/baseballglove.jpg,1,2,stimuli/white_butterfly.png,1,5,2020-12-18_16h20.43.465,premce3DEU_ses-02_part-01_label-phase1,2020.1.2,MacIntel,60,,,,,right,1,0.949,0,34,34,34,1,,,,,,,,
,,,,,1,"[0,1,1,0,0,0,1,1,1,1,0,1,1,1,0,1,0,0,0,0,1,1,0,1,0,0,0,1,0,1,1,1,1,0,1,1,1,1,1,1,1,1,1,1]",1,,,,,,stimuli/grey_butterfly.png,stimuli/white_butterfly.png,1,stimuli/green_flower.png,stimuli/yellow_flower.png,stimuli/blue_flower.png,stimuli/red_flower.png,right,stimuli/objects/candycane01a.jpg,1,2,stimuli/grey_butterfly.png,1,5,2020-12-18_16h20.43.465,premce3DEU_ses-02_part-01_label-phase1,2020.1.2,MacIntel,60,,,,,right,1,0.832,0,35,35,35,1,,,,,,,,
,,,,,1,"[0,1,1,0,0,0,1,1,1,1,0,1,1,1,0,1,0,0,0,0,1,1,0,1,0,0,0,1,0,1,1,1,1,0,1,1,1,1,1,1,1,1,1,1,1]",1,,,,,,stimuli/white_butterfly.png,stimuli/grey_butterfly.png,1,stimuli/blue_flower.png,stimuli/red_flower.png,stimuli/yellow_flower.png,stimuli/green_flower.png,left,stimuli/objects/windturbine.jpg,1,2,stimuli/white_butterfly.png,1,5,2020-12-18_16h20.43.465,premce3DEU_ses-02_part-01_label-phase1,2020.1.2,MacIntel,60,,,,,left,1,0.657,0,36,36,36,1,,,,,,,,
,,,,,1,"[0,1,1,0,0,0,1,1,1,1,0,1,1,1,0,1,0,0,0,0,1,1,0,1,0,0,0,1,0,1,1,1,1,0,1,1,1,1,1,1,1,1,1,1,1,1]",1,,,,,,stimuli/grey_butterfly.png,stimuli/white_butterfly.png,2,stimuli/green_flower.png,stimuli/yellow_flower.png,stimuli/blue_flower.png,stimuli/red_flower.png,down,stimuli/objects/desktopcomputer.jpg,1,2,stimuli/white_butterfly.png,1,5,2020-12-18_16h20.43.465,premce3DEU_ses-02_part-01_label-phase1,2020.1.2,MacIntel,60,,,,,down,1,0.955,0,37,37,37,1,,,,,,,,
,,,,,1,"[0,1,1,0,0,0,1,1,1,1,0,1,1,1,0,1,0,0,0,0,1,1,0,1,0,0,0,1,0,1,1,1,1,0,1,1,1,1,1,1,1,1,1,1,1,1,1]",1,,,,,,stimuli/grey_butterfly.png,stimuli/white_butterfly.png,2,stimuli/green_flower.png,stimuli/yellow_flower.png,stimuli/red_flower.png,stimuli/blue_flower.png,right,stimuli/objects/butterfly5.jpg,1,2,stimuli/white_butterfly.png,1,5,2020-12-18_16h20.43.465,premce3DEU_ses-02_part-01_label-phase1,2020.1.2,MacIntel,60,,,,,right,1,0.993,0,38,38,38,1,,,,,,,,
,,,,,1,"[0,1,1,0,0,0,1,1,1,1,0,1,1,1,0,1,0,0,0,0,1,1,0,1,0,0,0,1,0,1,1,1,1,0,1,1,1,1,1,1,1,1,1,1,1,1,1,1]",1,,,,,,stimuli/white_butterfly.png,stimuli/grey_butterfly.png,2,stimuli/green_flower.png,stimuli/red_flower.png,stimuli/blue_flower.png,stimuli/yellow_flower.png,up,stimuli/objects/scalpel.jpg,1,2,stimuli/grey_butterfly.png,1,5,2020-12-18_16h20.43.465,premce3DEU_ses-02_part-01_label-phase1,2020.1.2,MacIntel,60,,,,,up,1,1.286,0,39,39,39,1,,,,,,,,
,,,,,1,"[0,1,1,0,0,0,1,1,1,1,0,1,1,1,0,1,0,0,0,0,1,1,0,1,0,0,0,1,0,1,1,1,1,0,1,1,1,1,1,1,1,1,1,1,1,1,1,1,1]",1,,,,,,stimuli/grey_butterfly.png,stimuli/white_butterfly.png,1,stimuli/blue_flower.png,stimuli/yellow_flower.png,stimuli/green_flower.png,stimuli/red_flower.png,right,stimuli/objects/footballhelmet.jpg,1,2,stimuli/grey_butterfly.png,1,5,2020-12-18_16h20.43.465,premce3DEU_ses-02_part-01_label-phase1,2020.1.2,MacIntel,60,,,,,right,1,0.625,0,40,40,40,1,,,,,,,,
,,,,,1,"[0,1,1,0,0,0,1,1,1,1,0,1,1,1,0,1,0,0,0,0,1,1,0,1,0,0,0,1,0,1,1,1,1,0,1,1,1,1,1,1,1,1,1,1,1,1,1,1,1,1]",1,,,,,,stimuli/grey_butterfly.png,stimuli/white_butterfly.png,2,stimuli/green_flower.png,stimuli/blue_flower.png,stimuli/red_flower.png,stimuli/yellow_flower.png,up,stimuli/objects/seaturtle.jpg,1,2,stimuli/white_butterfly.png,1,5,2020-12-18_16h20.43.465,premce3DEU_ses-02_part-01_label-phase1,2020.1.2,MacIntel,60,,,,,up,1,0.767,0,41,41,41,1,,,,,,,,
,,,,,,,,,,,,,,,,,,,,,,,,,,5,2020-12-18_16h20.43.465,premce3DEU_ses-02_part-01_label-phase1,2020.1.2,MacIntel,60,,,,,,,,,,,,,0,0,0,0,1,condition_files/tasklistAplus2.csv,,
,,,,,0,"[0,1,1,0,0,0,1,1,1,1,0,1,1,1,0,1,0,0,0,0,1,1,0,1,0,0,0,1,0,1,1,1,1,0,1,1,1,1,1,1,1,1,1,1,1,1,1,1,1,1,1]",0,,,,,,stimuli/grey_butterfly.png,stimuli/white_butterfly.png,2,stimuli/yellow_flower.png,stimuli/blue_flower.png,stimuli/red_flower.png,stimuli/green_flower.png,right,stimuli/objects/callbell.jpg,1,3,stimuli/white_butterfly.png,0,5,2020-12-18_16h20.43.465,premce3DEU_ses-02_part-01_label-phase1,2020.1.2,MacIntel,60,,,,,up,0,0.621,0,0,0,0,1,,,,,,,,
,,,,,0,"[0,1,1,0,0,0,1,1,1,1,0,1,1,1,0,1,0,0,0,0,1,1,0,1,0,0,0,1,0,1,1,1,1,0,1,1,1,1,1,1,1,1,1,1,1,1,1,1,1,1,1,0]",0,,,,,,stimuli/white_butterfly.png,stimuli/grey_butterfly.png,1,stimuli/red_flower.png,stimuli/blue_flower.png,stimuli/yellow_flower.png,stimuli/green_flower.png,right,stimuli/objects/polarbear.jpg,1,3,stimuli/white_butterfly.png,0,5,2020-12-18_16h20.43.465,premce3DEU_ses-02_part-01_label-phase1,2020.1.2,MacIntel,60,,,,,up,0,1.526,0,1,1,1,1,,,,,,,,
,,,,,0,"[0,1,1,0,0,0,1,1,1,1,0,1,1,1,0,1,0,0,0,0,1,1,0,1,0,0,0,1,0,1,1,1,1,0,1,1,1,1,1,1,1,1,1,1,1,1,1,1,1,1,1,0,0]",0,,,,,,stimuli/white_butterfly.png,stimuli/grey_butterfly.png,2,stimuli/green_flower.png,stimuli/yellow_flower.png,stimuli/blue_flower.png,stimuli/red_flower.png,up,stimuli/objects/shovel01.jpg,1,3,stimuli/grey_butterfly.png,0,5,2020-12-18_16h20.43.465,premce3DEU_ses-02_part-01_label-phase1,2020.1.2,MacIntel,60,,,,,right,0,0.794,0,2,2,2,1,,,,,,,,
,,,,,1,"[0,1,1,0,0,0,1,1,1,1,0,1,1,1,0,1,0,0,0,0,1,1,0,1,0,0,0,1,0,1,1,1,1,0,1,1,1,1,1,1,1,1,1,1,1,1,1,1,1,1,1,0,0,0]",1,,,,,,stimuli/white_butterfly.png,stimuli/grey_butterfly.png,1,stimuli/blue_flower.png,stimuli/red_flower.png,stimuli/yellow_flower.png,stimuli/green_flower.png,right,stimuli/objects/greywolf.jpg,1,3,stimuli/white_butterfly.png,0,5,2020-12-18_16h20.43.465,premce3DEU_ses-02_part-01_label-phase1,2020.1.2,MacIntel,60,,,,,right,1,1.951,0,3,3,3,1,,,,,,,,
,,,,,1,"[0,1,1,0,0,0,1,1,1,1,0,1,1,1,0,1,0,0,0,0,1,1,0,1,0,0,0,1,0,1,1,1,1,0,1,1,1,1,1,1,1,1,1,1,1,1,1,1,1,1,1,0,0,0,1]",1,,,,,,stimuli/white_butterfly.png,stimuli/grey_butterfly.png,1,stimuli/yellow_flower.png,stimuli/green_flower.png,stimuli/blue_flower.png,stimuli/red_flower.png,left,stimuli/objects/dogsled.jpg,0,3,stimuli/white_butterfly.png,0,5,2020-12-18_16h20.43.465,premce3DEU_ses-02_part-01_label-phase1,2020.1.2,MacIntel,60,,,,,left,1,1.803,0,4,4,4,1,,,,,,,,
,,,,,0,"[0,1,1,0,0,0,1,1,1,1,0,1,1,1,0,1,0,0,0,0,1,1,0,1,0,0,0,1,0,1,1,1,1,0,1,1,1,1,1,1,1,1,1,1,1,1,1,1,1,1,1,0,0,0,1]",0,,,,,,stimuli/white_butterfly.png,stimuli/grey_butterfly.png,2,stimuli/yellow_flower.png,stimuli/red_flower.png,stimuli/blue_flower.png,stimuli/green_flower.png,left,stimuli/objects/giraffe.jpg,1,3,stimuli/grey_butterfly.png,0,5,2020-12-18_16h20.43.465,premce3DEU_ses-02_part-01_label-phase1,2020.1.2,MacIntel,60,,,,,right,0,1.274,0,5,5,5,1,,,,,,,,
,,,,,0,"[0,1,1,0,0,0,1,1,1,1,0,1,1,1,0,1,0,0,0,0,1,1,0,1,0,0,0,1,0,1,1,1,1,0,1,1,1,1,1,1,1,1,1,1,1,1,1,1,1,1,1,0,0,0,1,0]",0,,,,,,stimuli/grey_butterfly.png,stimuli/white_butterfly.png,2,stimuli/blue_flower.png,stimuli/yellow_flower.png,stimuli/green_flower.png,stimuli/red_flower.png,down,stimuli/objects/ironingboard01.jpg,1,3,stimuli/white_butterfly.png,0,5,2020-12-18_16h20.43.465,premce3DEU_ses-02_part-01_label-phase1,2020.1.2,MacIntel,60,,,,,,0,,0,6,6,6,1,,,,,,,,
,,,,,1,"[0,1,1,0,0,0,1,1,1,1,0,1,1,1,0,1,0,0,0,0,1,1,0,1,0,0,0,1,0,1,1,1,1,0,1,1,1,1,1,1,1,1,1,1,1,1,1,1,1,1,1,0,0,0,1,0,0]",1,,,,,,stimuli/grey_butterfly.png,stimuli/white_butterfly.png,2,stimuli/blue_flower.png,stimuli/green_flower.png,stimuli/yellow_flower.png,stimuli/red_flower.png,up,stimuli/objects/barn.jpg,1,3,stimuli/white_butterfly.png,0,5,2020-12-18_16h20.43.465,premce3DEU_ses-02_part-01_label-phase1,2020.1.2,MacIntel,60,,,,,up,1,0.669,0,7,7,7,1,,,,,,,,
,,,,,1,"[0,1,1,0,0,0,1,1,1,1,0,1,1,1,0,1,0,0,0,0,1,1,0,1,0,0,0,1,0,1,1,1,1,0,1,1,1,1,1,1,1,1,1,1,1,1,1,1,1,1,1,0,0,0,1,0,0,1]",1,,,,,,stimuli/white_butterfly.png,stimuli/grey_butterfly.png,2,stimuli/blue_flower.png,stimuli/green_flower.png,stimuli/red_flower.png,stimuli/yellow_flower.png,right,stimuli/objects/showerhead01.jpg,1,3,stimuli/grey_butterfly.png,0,5,2020-12-18_16h20.43.465,premce3DEU_ses-02_part-01_label-phase1,2020.1.2,MacIntel,60,,,,,right,1,0.978,0,8,8,8,1,,,,,,,,
,,,,,1,"[0,1,1,0,0,0,1,1,1,1,0,1,1,1,0,1,0,0,0,0,1,1,0,1,0,0,0,1,0,1,1,1,1,0,1,1,1,1,1,1,1,1,1,1,1,1,1,1,1,1,1,0,0,0,1,0,0,1,1]",1,,,,,,stimuli/grey_butterfly.png,stimuli/white_butterfly.png,2,stimuli/green_flower.png,stimuli/blue_flower.png,stimuli/yellow_flower.png,stimuli/red_flower.png,left,stimuli/objects/dreamcatcher.jpg,1,3,stimuli/white_butterfly.png,0,5,2020-12-18_16h20.43.465,premce3DEU_ses-02_part-01_label-phase1,2020.1.2,MacIntel,60,,,,,left,1,1.73,0,9,9,9,1,,,,,,,,
,,,,,1,"[0,1,1,0,0,0,1,1,1,1,0,1,1,1,0,1,0,0,0,0,1,1,0,1,0,0,0,1,0,1,1,1,1,0,1,1,1,1,1,1,1,1,1,1,1,1,1,1,1,1,1,0,0,0,1,0,0,1,1,1]",1,,,,,,stimuli/white_butterfly.png,stimuli/grey_butterfly.png,2,stimuli/red_flower.png,stimuli/blue_flower.png,stimuli/yellow_flower.png,stimuli/green_flower.png,down,stimuli/objects/golfball.jpg,1,3,stimuli/grey_butterfly.png,0,5,2020-12-18_16h20.43.465,premce3DEU_ses-02_part-01_label-phase1,2020.1.2,MacIntel,60,,,,,down,1,1.095,0,10,10,10,1,,,,,,,,
,,,,,1,"[0,1,1,0,0,0,1,1,1,1,0,1,1,1,0,1,0,0,0,0,1,1,0,1,0,0,0,1,0,1,1,1,1,0,1,1,1,1,1,1,1,1,1,1,1,1,1,1,1,1,1,0,0,0,1,0,0,1,1,1,1]",1,,,,,,stimuli/grey_butterfly.png,stimuli/white_butterfly.png,2,stimuli/yellow_flower.png,stimuli/red_flower.png,stimuli/green_flower.png,stimuli/blue_flower.png,down,stimuli/objects/wheelchair.jpg,1,3,stimuli/white_butterfly.png,0,5,2020-12-18_16h20.43.465,premce3DEU_ses-02_part-01_label-phase1,2020.1.2,MacIntel,60,,,,,down,1,1.127,0,11,11,11,1,,,,,,,,
,,,,,1,"[0,1,1,0,0,0,1,1,1,1,0,1,1,1,0,1,0,0,0,0,1,1,0,1,0,0,0,1,0,1,1,1,1,0,1,1,1,1,1,1,1,1,1,1,1,1,1,1,1,1,1,0,0,0,1,0,0,1,1,1,1,1]",1,,,,,,stimuli/white_butterfly.png,stimuli/grey_butterfly.png,2,stimuli/yellow_flower.png,stimuli/red_flower.png,stimuli/green_flower.png,stimuli/blue_flower.png,left,stimuli/objects/waterfountain02.jpg,1,3,stimuli/grey_butterfly.png,0,5,2020-12-18_16h20.43.465,premce3DEU_ses-02_part-01_label-phase1,2020.1.2,MacIntel,60,,,,,left,1,0.692,0,12,12,12,1,,,,,,,,
,,,,,1,"[0,1,1,0,0,0,1,1,1,1,0,1,1,1,0,1,0,0,0,0,1,1,0,1,0,0,0,1,0,1,1,1,1,0,1,1,1,1,1,1,1,1,1,1,1,1,1,1,1,1,1,0,0,0,1,0,0,1,1,1,1,1,1]",1,,,,,,stimuli/grey_butterfly.png,stimuli/white_butterfly.png,1,stimuli/yellow_flower.png,stimuli/blue_flower.png,stimuli/red_flower.png,stimuli/green_flower.png,left,stimuli/objects/fluorescentlightbulb.jpg,1,3,stimuli/grey_butterfly.png,0,5,2020-12-18_16h20.43.465,premce3DEU_ses-02_part-01_label-phase1,2020.1.2,MacIntel,60,,,,,left,1,1.022,0,13,13,13,1,,,,,,,,
,,,,,0,"[0,1,1,0,0,0,1,1,1,1,0,1,1,1,0,1,0,0,0,0,1,1,0,1,0,0,0,1,0,1,1,1,1,0,1,1,1,1,1,1,1,1,1,1,1,1,1,1,1,1,1,0,0,0,1,0,0,1,1,1,1,1,1,1]",0,,,,,,stimuli/white_butterfly.png,stimuli/grey_butterfly.png,2,stimuli/blue_flower.png,stimuli/red_flower.png,stimuli/green_flower.png,stimuli/yellow_flower.png,right,stimuli/objects/frisbee.jpg,1,3,stimuli/grey_butterfly.png,0,5,2020-12-18_16h20.43.465,premce3DEU_ses-02_part-01_label-phase1,2020.1.2,MacIntel,60,,,,,down,0,0.895,0,14,14,14,1,,,,,,,,
,,,,,0,"[0,1,1,0,0,0,1,1,1,1,0,1,1,1,0,1,0,0,0,0,1,1,0,1,0,0,0,1,0,1,1,1,1,0,1,1,1,1,1,1,1,1,1,1,1,1,1,1,1,1,1,0,0,0,1,0,0,1,1,1,1,1,1,1,0]",0,,,,,,stimuli/grey_butterfly.png,stimuli/white_butterfly.png,2,stimuli/green_flower.png,stimuli/yellow_flower.png,stimuli/blue_flower.png,stimuli/red_flower.png,left,stimuli/objects/trophy01.jpg,1,3,stimuli/white_butterfly.png,0,5,2020-12-18_16h20.43.465,premce3DEU_ses-02_part-01_label-phase1,2020.1.2,MacIntel,60,,,,,up,0,1.11,0,15,15,15,1,,,,,,,,
,,,,,1,"[0,1,1,0,0,0,1,1,1,1,0,1,1,1,0,1,0,0,0,0,1,1,0,1,0,0,0,1,0,1,1,1,1,0,1,1,1,1,1,1,1,1,1,1,1,1,1,1,1,1,1,0,0,0,1,0,0,1,1,1,1,1,1,1,0,0]",1,,,,,,stimuli/white_butterfly.png,stimuli/grey_butterfly.png,1,stimuli/green_flower.png,stimuli/red_flower.png,stimuli/yellow_flower.png,stimuli/blue_flower.png,left,stimuli/objects/butterfly3.jpg,1,3,stimuli/white_butterfly.png,0,5,2020-12-18_16h20.43.465,premce3DEU_ses-02_part-01_label-phase1,2020.1.2,MacIntel,60,,,,,left,1,2.396,0,16,16,16,1,,,,,,,,
,,,,,0,"[0,1,1,0,0,0,1,1,1,1,0,1,1,1,0,1,0,0,0,0,1,1,0,1,0,0,0,1,0,1,1,1,1,0,1,1,1,1,1,1,1,1,1,1,1,1,1,1,1,1,1,0,0,0,1,0,0,1,1,1,1,1,1,1,0,0,1]",1,,,,,,stimuli/grey_butterfly.png,stimuli/white_butterfly.png,1,stimuli/blue_flower.png,stimuli/yellow_flower.png,stimuli/red_flower.png,stimuli/green_flower.png,down,stimuli/objects/soccerball.jpg,0,3,stimuli/grey_butterfly.png,0,5,2020-12-18_16h20.43.465,premce3DEU_ses-02_part-01_label-phase1,2020.1.2,MacIntel,60,,,,,right,0,1.012,0,17,17,17,1,,,,,,,,
,,,,,1,"[0,1,1,0,0,0,1,1,1,1,0,1,1,1,0,1,0,0,0,0,1,1,0,1,0,0,0,1,0,1,1,1,1,0,1,1,1,1,1,1,1,1,1,1,1,1,1,1,1,1,1,0,0,0,1,0,0,1,1,1,1,1,1,1,0,0,1]",1,,,,,,stimuli/grey_butterfly.png,stimuli/white_butterfly.png,2,stimuli/green_flower.png,stimuli/red_flower.png,stimuli/yellow_flower.png,stimuli/blue_flower.png,left,stimuli/objects/mirror02.jpg,1,3,stimuli/white_butterfly.png,0,5,2020-12-18_16h20.43.465,premce3DEU_ses-02_part-01_label-phase1,2020.1.2,MacIntel,60,,,,,left,1,0.77,0,18,18,18,1,,,,,,,,
,,,,,0,"[0,1,1,0,0,0,1,1,1,1,0,1,1,1,0,1,0,0,0,0,1,1,0,1,0,0,0,1,0,1,1,1,1,0,1,1,1,1,1,1,1,1,1,1,1,1,1,1,1,1,1,0,0,0,1,0,0,1,1,1,1,1,1,1,0,0,1,1]",0,,,,,,stimuli/grey_butterfly.png,stimuli/white_butterfly.png,1,stimuli/yellow_flower.png,stimuli/red_flower.png,stimuli/green_flower.png,stimuli/blue_flower.png,left,stimuli/objects/jeans01.jpg,1,3,stimuli/grey_butterfly.png,0,5,2020-12-18_16h20.43.465,premce3DEU_ses-02_part-01_label-phase1,2020.1.2,MacIntel,60,,,,,down,0,1.852,0,19,19,19,1,,,,,,,,
,,,,,1,"[0,1,1,0,0,0,1,1,1,1,0,1,1,1,0,1,0,0,0,0,1,1,0,1,0,0,0,1,0,1,1,1,1,0,1,1,1,1,1,1,1,1,1,1,1,1,1,1,1,1,1,0,0,0,1,0,0,1,1,1,1,1,1,1,0,0,1,1,0]",1,,,,,,stimuli/white_butterfly.png,stimuli/grey_butterfly.png,1,stimuli/red_flower.png,stimuli/green_flower.png,stimuli/yellow_flower.png,stimuli/blue_flower.png,up,stimuli/objects/cashregister01.jpg,1,3,stimuli/white_butterfly.png,0,5,2020-12-18_16h20.43.465,premce3DEU_ses-02_part-01_label-phase1,2020.1.2,MacIntel,60,,,,,up,1,1.305,0,20,20,20,1,,,,,,,,
,,,,,0,"[0,1,1,0,0,0,1,1,1,1,0,1,1,1,0,1,0,0,0,0,1,1,0,1,0,0,0,1,0,1,1,1,1,0,1,1,1,1,1,1,1,1,1,1,1,1,1,1,1,1,1,0,0,0,1,0,0,1,1,1,1,1,1,1,0,0,1,1,0,1]",1,,,,,,stimuli/grey_butterfly.png,stimuli/white_butterfly.png,1,stimuli/red_flower.png,stimuli/green_flower.png,stimuli/yellow_flower.png,stimuli/blue_flower.png,up,stimuli/objects/cremebrulee.jpg,0,3,stimuli/grey_butterfly.png,1,5,2020-12-18_16h20.43.465,premce3DEU_ses-02_part-01_label-phase1,2020.1.2,MacIntel,60,,,,,down,0,0.601,0,21,21,21,1,,,,,,,,
,,,,,0,"[0,1,1,0,0,0,1,1,1,1,0,1,1,1,0,1,0,0,0,0,1,1,0,1,0,0,0,1,0,1,1,1,1,0,1,1,1,1,1,1,1,1,1,1,1,1,1,1,1,1,1,0,0,0,1,0,0,1,1,1,1,1,1,1,0,0,1,1,0,1]",0,,,,,,stimuli/white_butterfly.png,stimuli/grey_butterfly.png,1,stimuli/yellow_flower.png,stimuli/blue_flower.png,stimuli/green_flower.png,stimuli/red_flower.png,down,stimuli/objects/salmon.jpg,1,3,stimuli/white_butterfly.png,1,5,2020-12-18_16h20.43.465,premce3DEU_ses-02_part-01_label-phase1,2020.1.2,MacIntel,60,,,,,left,0,1.226,0,22,22,22,1,,,,,,,,
,,,,,1,"[0,1,1,0,0,0,1,1,1,1,0,1,1,1,0,1,0,0,0,0,1,1,0,1,0,0,0,1,0,1,1,1,1,0,1,1,1,1,1,1,1,1,1,1,1,1,1,1,1,1,1,0,0,0,1,0,0,1,1,1,1,1,1,1,0,0,1,1,0,1,0]",1,,,,,,stimuli/grey_butterfly.png,stimuli/white_butterfly.png,1,stimuli/blue_flower.png,stimuli/red_flower.png,stimuli/yellow_flower.png,stimuli/green_flower.png,down,stimuli/objects/jackrabbit.jpg,1,3,stimuli/grey_butterfly.png,1,5,2020-12-18_16h20.43.465,premce3DEU_ses-02_part-01_label-phase1,2020.1.2,MacIntel,60,,,,,down,1,1.824,0,23,23,23,1,,,,,,,,
,,,,,1,"[0,1,1,0,0,0,1,1,1,1,0,1,1,1,0,1,0,0,0,0,1,1,0,1,0,0,0,1,0,1,1,1,1,0,1,1,1,1,1,1,1,1,1,1,1,1,1,1,1,1,1,0,0,0,1,0,0,1,1,1,1,1,1,1,0,0,1,1,0,1,0,1]",1,,,,,,stimuli/white_butterfly.png,stimuli/grey_butterfly.png,2,stimuli/green_flower.png,stimuli/red_flower.png,stimuli/yellow_flower.png,stimuli/blue_flower.png,down,stimuli/objects/sausage.jpg,1,3,stimuli/grey_butterfly.png,1,5,2020-12-18_16h20.43.465,premce3DEU_ses-02_part-01_label-phase1,2020.1.2,MacIntel,60,,,,,down,1,0.473,0,24,24,24,1,,,,,,,,
,,,,,0,"[0,1,1,0,0,0,1,1,1,1,0,1,1,1,0,1,0,0,0,0,1,1,0,1,0,0,0,1,0,1,1,1,1,0,1,1,1,1,1,1,1,1,1,1,1,1,1,1,1,1,1,0,0,0,1,0,0,1,1,1,1,1,1,1,0,0,1,1,0,1,0,1,1]",1,,,,,,stimuli/grey_butterfly.png,stimuli/white_butterfly.png,2,stimuli/yellow_flower.png,stimuli/green_flower.png,stimuli/blue_flower.png,stimuli/red_flower.png,down,stimuli/objects/lightswitch01.jpg,0,3,stimuli/white_butterfly.png,1,5,2020-12-18_16h20.43.465,premce3DEU_ses-02_part-01_label-phase1,2020.1.2,MacIntel,60,,,,,up,0,1.033,0,25,25,25,1,,,,,,,,
,,,,,0,"[0,1,1,0,0,0,1,1,1,1,0,1,1,1,0,1,0,0,0,0,1,1,0,1,0,0,0,1,0,1,1,1,1,0,1,1,1,1,1,1,1,1,1,1,1,1,1,1,1,1,1,0,0,0,1,0,0,1,1,1,1,1,1,1,0,0,1,1,0,1,0,1,1]",1,,,,,,stimuli/white_butterfly.png,stimuli/grey_butterfly.png,2,stimuli/blue_flower.png,stimuli/green_flower.png,stimuli/yellow_flower.png,stimuli/red_flower.png,left,stimuli/objects/cannon.jpg,0,3,stimuli/grey_butterfly.png,1,5,2020-12-18_16h20.43.465,premce3DEU_ses-02_part-01_label-phase1,2020.1.2,MacIntel,60,,,,,down,0,0.731,0,26,26,26,1,,,,,,,,
,,,,,0,"[0,1,1,0,0,0,1,1,1,1,0,1,1,1,0,1,0,0,0,0,1,1,0,1,0,0,0,1,0,1,1,1,1,0,1,1,1,1,1,1,1,1,1,1,1,1,1,1,1,1,1,0,0,0,1,0,0,1,1,1,1,1,1,1,0,0,1,1,0,1,0,1,1]",0,,,,,,stimuli/grey_butterfly.png,stimuli/white_butterfly.png,1,stimuli/green_flower.png,stimuli/red_flower.png,stimuli/blue_flower.png,stimuli/yellow_flower.png,right,stimuli/objects/bolt01a.jpg,1,3,stimuli/grey_butterfly.png,1,5,2020-12-18_16h20.43.465,premce3DEU_ses-02_part-01_label-phase1,2020.1.2,MacIntel,60,,,,,left,0,2.205,0,27,27,27,1,,,,,,,,
,,,,,0,"[0,1,1,0,0,0,1,1,1,1,0,1,1,1,0,1,0,0,0,0,1,1,0,1,0,0,0,1,0,1,1,1,1,0,1,1,1,1,1,1,1,1,1,1,1,1,1,1,1,1,1,0,0,0,1,0,0,1,1,1,1,1,1,1,0,0,1,1,0,1,0,1,1,0]",0,,,,,,stimuli/white_butterfly.png,stimuli/grey_butterfly.png,1,stimuli/green_flower.png,stimuli/yellow_flower.png,stimuli/red_flower.png,stimuli/blue_flower.png,left,stimuli/objects/chipmunk.jpg,1,3,stimuli/white_butterfly.png,1,5,2020-12-18_16h20.43.465,premce3DEU_ses-02_part-01_label-phase1,2020.1.2,MacIntel,60,,,,,up,0,0.662,0,28,28,28,1,,,,,,,,
,,,,,1,"[0,1,1,0,0,0,1,1,1,1,0,1,1,1,0,1,0,0,0,0,1,1,0,1,0,0,0,1,0,1,1,1,1,0,1,1,1,1,1,1,1,1,1,1,1,1,1,1,1,1,1,0,0,0,1,0,0,1,1,1,1,1,1,1,0,0,1,1,0,1,0,1,1,0,0]",1,,,,,,stimuli/white_butterfly.png,stimuli/grey_butterfly.png,1,stimuli/blue_flower.png,stimuli/yellow_flower.png,stimuli/green_flower.png,stimuli/red_flower.png,down,stimuli/objects/spicerack.jpg,1,3,stimuli/white_butterfly.png,1,5,2020-12-18_16h20.43.465,premce3DEU_ses-02_part-01_label-phase1,2020.1.2,MacIntel,60,,,,,down,1,1.546,0,29,29,29,1,,,,,,,,
,,,,,0,"[0,1,1,0,0,0,1,1,1,1,0,1,1,1,0,1,0,0,0,0,1,1,0,1,0,0,0,1,0,1,1,1,1,0,1,1,1,1,1,1,1,1,1,1,1,1,1,1,1,1,1,0,0,0,1,0,0,1,1,1,1,1,1,1,0,0,1,1,0,1,0,1,1,0,0,1]",0,,,,,,stimuli/grey_butterfly.png,stimuli/white_butterfly.png,1,stimuli/red_flower.png,stimuli/yellow_flower.png,stimuli/blue_flower.png,stimuli/green_flower.png,up,stimuli/objects/beaver.jpg,1,3,stimuli/grey_butterfly.png,1,5,2020-12-18_16h20.43.465,premce3DEU_ses-02_part-01_label-phase1,2020.1.2,MacIntel,60,,,,,right,0,1.076,0,30,30,30,1,,,,,,,,
,,,,,1,"[0,1,1,0,0,0,1,1,1,1,0,1,1,1,0,1,0,0,0,0,1,1,0,1,0,0,0,1,0,1,1,1,1,0,1,1,1,1,1,1,1,1,1,1,1,1,1,1,1,1,1,0,0,0,1,0,0,1,1,1,1,1,1,1,0,0,1,1,0,1,0,1,1,0,0,1,0]",1,,,,,,stimuli/grey_butterfly.png,stimuli/white_butterfly.png,2,stimuli/green_flower.png,stimuli/red_flower.png,stimuli/blue_flower.png,stimuli/yellow_flower.png,left,stimuli/objects/cuttlefish.jpg,1,3,stimuli/white_butterfly.png,1,5,2020-12-18_16h20.43.465,premce3DEU_ses-02_part-01_label-phase1,2020.1.2,MacIntel,60,,,,,left,1,1.084,0,31,31,31,1,,,,,,,,
,,,,,1,"[0,1,1,0,0,0,1,1,1,1,0,1,1,1,0,1,0,0,0,0,1,1,0,1,0,0,0,1,0,1,1,1,1,0,1,1,1,1,1,1,1,1,1,1,1,1,1,1,1,1,1,0,0,0,1,0,0,1,1,1,1,1,1,1,0,0,1,1,0,1,0,1,1,0,0,1,0,1]",1,,,,,,stimuli/white_butterfly.png,stimuli/grey_butterfly.png,1,stimuli/yellow_flower.png,stimuli/red_flower.png,stimuli/blue_flower.png,stimuli/green_flower.png,right,stimuli/objects/communitymailbox.jpg,1,3,stimuli/white_butterfly.png,1,5,2020-12-18_16h20.43.465,premce3DEU_ses-02_part-01_label-phase1,2020.1.2,MacIntel,60,,,,,right,1,0.744,0,32,32,32,1,,,,,,,,
,,,,,1,"[0,1,1,0,0,0,1,1,1,1,0,1,1,1,0,1,0,0,0,0,1,1,0,1,0,0,0,1,0,1,1,1,1,0,1,1,1,1,1,1,1,1,1,1,1,1,1,1,1,1,1,0,0,0,1,0,0,1,1,1,1,1,1,1,0,0,1,1,0,1,0,1,1,0,0,1,0,1,1]",1,,,,,,stimuli/grey_butterfly.png,stimuli/white_butterfly.png,1,stimuli/green_flower.png,stimuli/red_flower.png,stimuli/yellow_flower.png,stimuli/blue_flower.png,down,stimuli/objects/treestump.jpg,1,3,stimuli/grey_butterfly.png,1,5,2020-12-18_16h20.43.465,premce3DEU_ses-02_part-01_label-phase1,2020.1.2,MacIntel,60,,,,,down,1,0.946,0,33,33,33,1,,,,,,,,
,,,,,1,"[0,1,1,0,0,0,1,1,1,1,0,1,1,1,0,1,0,0,0,0,1,1,0,1,0,0,0,1,0,1,1,1,1,0,1,1,1,1,1,1,1,1,1,1,1,1,1,1,1,1,1,0,0,0,1,0,0,1,1,1,1,1,1,1,0,0,1,1,0,1,0,1,1,0,0,1,0,1,1,1]",1,,,,,,stimuli/grey_butterfly.png,stimuli/white_butterfly.png,2,stimuli/red_flower.png,stimuli/blue_flower.png,stimuli/yellow_flower.png,stimuli/green_flower.png,right,stimuli/objects/butterfly1.jpg,1,3,stimuli/white_butterfly.png,1,5,2020-12-18_16h20.43.465,premce3DEU_ses-02_part-01_label-phase1,2020.1.2,MacIntel,60,,,,,right,1,0.554,0,34,34,34,1,,,,,,,,
,,,,,1,"[0,1,1,0,0,0,1,1,1,1,0,1,1,1,0,1,0,0,0,0,1,1,0,1,0,0,0,1,0,1,1,1,1,0,1,1,1,1,1,1,1,1,1,1,1,1,1,1,1,1,1,0,0,0,1,0,0,1,1,1,1,1,1,1,0,0,1,1,0,1,0,1,1,0,0,1,0,1,1,1,1]",1,,,,,,stimuli/grey_butterfly.png,stimuli/white_butterfly.png,1,stimuli/blue_flower.png,stimuli/green_flower.png,stimuli/red_flower.png,stimuli/yellow_flower.png,right,stimuli/objects/basketball01.jpg,1,3,stimuli/grey_butterfly.png,1,5,2020-12-18_16h20.43.465,premce3DEU_ses-02_part-01_label-phase1,2020.1.2,MacIntel,60,,,,,right,1,1.018,0,35,35,35,1,,,,,,,,
,,,,,1,"[0,1,1,0,0,0,1,1,1,1,0,1,1,1,0,1,0,0,0,0,1,1,0,1,0,0,0,1,0,1,1,1,1,0,1,1,1,1,1,1,1,1,1,1,1,1,1,1,1,1,1,0,0,0,1,0,0,1,1,1,1,1,1,1,0,0,1,1,0,1,0,1,1,0,0,1,0,1,1,1,1,1]",1,,,,,,stimuli/grey_butterfly.png,stimuli/white_butterfly.png,1,stimuli/blue_flower.png,stimuli/green_flower.png,stimuli/yellow_flower.png,stimuli/red_flower.png,down,stimuli/objects/electricguitar01.jpg,1,3,stimuli/grey_butterfly.png,1,5,2020-12-18_16h20.43.465,premce3DEU_ses-02_part-01_label-phase1,2020.1.2,MacIntel,60,,,,,down,1,0.902,0,36,36,36,1,,,,,,,,
,,,,,1,"[0,1,1,0,0,0,1,1,1,1,0,1,1,1,0,1,0,0,0,0,1,1,0,1,0,0,0,1,0,1,1,1,1,0,1,1,1,1,1,1,1,1,1,1,1,1,1,1,1,1,1,0,0,0,1,0,0,1,1,1,1,1,1,1,0,0,1,1,0,1,0,1,1,0,0,1,0,1,1,1,1,1,1]",1,,,,,,stimuli/grey_butterfly.png,stimuli/white_butterfly.png,1,stimuli/green_flower.png,stimuli/blue_flower.png,stimuli/red_flower.png,stimuli/yellow_flower.png,right,stimuli/objects/snowglobe.jpg,1,3,stimuli/grey_butterfly.png,1,5,2020-12-18_16h20.43.465,premce3DEU_ses-02_part-01_label-phase1,2020.1.2,MacIntel,60,,,,,right,1,0.628,0,37,37,37,1,,,,,,,,
,,,,,1,"[0,1,1,0,0,0,1,1,1,1,0,1,1,1,0,1,0,0,0,0,1,1,0,1,0,0,0,1,0,1,1,1,1,0,1,1,1,1,1,1,1,1,1,1,1,1,1,1,1,1,1,0,0,0,1,0,0,1,1,1,1,1,1,1,0,0,1,1,0,1,0,1,1,0,0,1,0,1,1,1,1,1,1,1]",1,,,,,,stimuli/grey_butterfly.png,stimuli/white_butterfly.png,2,stimuli/yellow_flower.png,stimuli/blue_flower.png,stimuli/green_flower.png,stimuli/red_flower.png,down,stimuli/objects/bacon.jpg,1,3,stimuli/white_butterfly.png,1,5,2020-12-18_16h20.43.465,premce3DEU_ses-02_part-01_label-phase1,2020.1.2,MacIntel,60,,,,,down,1,1.34,0,38,38,38,1,,,,,,,,
,,,,,0,"[0,1,1,0,0,0,1,1,1,1,0,1,1,1,0,1,0,0,0,0,1,1,0,1,0,0,0,1,0,1,1,1,1,0,1,1,1,1,1,1,1,1,1,1,1,1,1,1,1,1,1,0,0,0,1,0,0,1,1,1,1,1,1,1,0,0,1,1,0,1,0,1,1,0,0,1,0,1,1,1,1,1,1,1,1]",1,,,,,,stimuli/white_butterfly.png,stimuli/grey_butterfly.png,1,stimuli/green_flower.png,stimuli/red_flower.png,stimuli/blue_flower.png,stimuli/yellow_flower.png,up,stimuli/objects/skateboard.jpg,0,3,stimuli/white_butterfly.png,1,5,2020-12-18_16h20.43.465,premce3DEU_ses-02_part-01_label-phase1,2020.1.2,MacIntel,60,,,,,right,0,0.756,0,39,39,39,1,,,,,,,,
,,,,,0,"[0,1,1,0,0,0,1,1,1,1,0,1,1,1,0,1,0,0,0,0,1,1,0,1,0,0,0,1,0,1,1,1,1,0,1,1,1,1,1,1,1,1,1,1,1,1,1,1,1,1,1,0,0,0,1,0,0,1,1,1,1,1,1,1,0,0,1,1,0,1,0,1,1,0,0,1,0,1,1,1,1,1,1,1,1]",0,,,,,,stimuli/grey_butterfly.png,stimuli/white_butterfly.png,1,stimuli/green_flower.png,stimuli/yellow_flower.png,stimuli/red_flower.png,stimuli/blue_flower.png,up,stimuli/objects/exitsign.jpg,1,3,stimuli/grey_butterfly.png,1,5,2020-12-18_16h20.43.465,premce3DEU_ses-02_part-01_label-phase1,2020.1.2,MacIntel,60,,,,,left,0,1.238,0,40,40,40,1,,,,,,,,
,,,,,1,"[0,1,1,0,0,0,1,1,1,1,0,1,1,1,0,1,0,0,0,0,1,1,0,1,0,0,0,1,0,1,1,1,1,0,1,1,1,1,1,1,1,1,1,1,1,1,1,1,1,1,1,0,0,0,1,0,0,1,1,1,1,1,1,1,0,0,1,1,0,1,0,1,1,0,0,1,0,1,1,1,1,1,1,1,1,0]",1,,,,,,stimuli/grey_butterfly.png,stimuli/white_butterfly.png,1,stimuli/red_flower.png,stimuli/green_flower.png,stimuli/blue_flower.png,stimuli/yellow_flower.png,right,stimuli/objects/windshieldwiper02.jpg,1,3,stimuli/grey_butterfly.png,1,5,2020-12-18_16h20.43.465,premce3DEU_ses-02_part-01_label-phase1,2020.1.2,MacIntel,60,,,,,right,1,1.552,0,41,41,41,1,,,,,,,,
,,,,,,,,,,,,,,,,,,,,,,,,,,5,2020-12-18_16h20.43.465,premce3DEU_ses-02_part-01_label-phase1,2020.1.2,MacIntel,60,,,,,,,,,,,,,0,1,1,1,1,condition_files/tasklistB2.csv,,
,,,,,0,"[0,1,1,0,0,0,1,1,1,1,0,1,1,1,0,1,0,0,0,0,1,1,0,1,0,0,0,1,0,1,1,1,1,0,1,1,1,1,1,1,1,1,1,1,1,1,1,1,1,1,1,0,0,0,1,0,0,1,1,1,1,1,1,1,0,0,1,1,0,1,0,1,1,0,0,1,0,1,1,1,1,1,1,1,1,0,1]",0,,,,,,stimuli/white_butterfly.png,stimuli/grey_butterfly.png,1,stimuli/yellow_flower.png,stimuli/blue_flower.png,stimuli/green_flower.png,stimuli/red_flower.png,left,stimuli/objects/shelves.jpg,1,4,stimuli/white_butterfly.png,0,5,2020-12-18_16h20.43.465,premce3DEU_ses-02_part-01_label-phase1,2020.1.2,MacIntel,60,,,,,down,0,1.631,0,0,0,0,1,,,,,,,,
,,,,,0,"[0,1,1,0,0,0,1,1,1,1,0,1,1,1,0,1,0,0,0,0,1,1,0,1,0,0,0,1,0,1,1,1,1,0,1,1,1,1,1,1,1,1,1,1,1,1,1,1,1,1,1,0,0,0,1,0,0,1,1,1,1,1,1,1,0,0,1,1,0,1,0,1,1,0,0,1,0,1,1,1,1,1,1,1,1,0,1,0]",0,,,,,,stimuli/grey_butterfly.png,stimuli/white_butterfly.png,1,stimuli/red_flower.png,stimuli/yellow_flower.png,stimuli/green_flower.png,stimuli/blue_flower.png,right,stimuli/objects/contactlens.jpg,1,4,stimuli/grey_butterfly.png,0,5,2020-12-18_16h20.43.465,premce3DEU_ses-02_part-01_label-phase1,2020.1.2,MacIntel,60,,,,,down,0,1.652,0,1,1,1,1,,,,,,,,
,,,,,0,"[0,1,1,0,0,0,1,1,1,1,0,1,1,1,0,1,0,0,0,0,1,1,0,1,0,0,0,1,0,1,1,1,1,0,1,1,1,1,1,1,1,1,1,1,1,1,1,1,1,1,1,0,0,0,1,0,0,1,1,1,1,1,1,1,0,0,1,1,0,1,0,1,1,0,0,1,0,1,1,1,1,1,1,1,1,0,1,0,0]",0,,,,,,stimuli/white_butterfly.png,stimuli/grey_butterfly.png,2,stimuli/blue_flower.png,stimuli/red_flower.png,stimuli/yellow_flower.png,stimuli/green_flower.png,left,stimuli/objects/witchhat.jpg,1,4,stimuli/grey_butterfly.png,0,5,2020-12-18_16h20.43.465,premce3DEU_ses-02_part-01_label-phase1,2020.1.2,MacIntel,60,,,,,up,0,2.365,0,2,2,2,1,,,,,,,,
,,,,,1,"[0,1,1,0,0,0,1,1,1,1,0,1,1,1,0,1,0,0,0,0,1,1,0,1,0,0,0,1,0,1,1,1,1,0,1,1,1,1,1,1,1,1,1,1,1,1,1,1,1,1,1,0,0,0,1,0,0,1,1,1,1,1,1,1,0,0,1,1,0,1,0,1,1,0,0,1,0,1,1,1,1,1,1,1,1,0,1,0,0,0]",1,,,,,,stimuli/grey_butterfly.png,stimuli/white_butterfly.png,2,stimuli/blue_flower.png,stimuli/red_flower.png,stimuli/yellow_flower.png,stimuli/green_flower.png,down,stimuli/objects/panda.jpg,1,4,stimuli/white_butterfly.png,0,5,2020-12-18_16h20.43.465,premce3DEU_ses-02_part-01_label-phase1,2020.1.2,MacIntel,60,,,,,down,1,1.885,0,3,3,3,1,,,,,,,,
,,,,,0,"[0,1,1,0,0,0,1,1,1,1,0,1,1,1,0,1,0,0,0,0,1,1,0,1,0,0,0,1,0,1,1,1,1,0,1,1,1,1,1,1,1,1,1,1,1,1,1,1,1,1,1,0,0,0,1,0,0,1,1,1,1,1,1,1,0,0,1,1,0,1,0,1,1,0,0,1,0,1,1,1,1,1,1,1,1,0,1,0,0,0,1]",0,,,,,,stimuli/white_butterfly.png,stimuli/grey_butterfly.png,1,stimuli/blue_flower.png,stimuli/green_flower.png,stimuli/yellow_flower.png,stimuli/red_flower.png,down,stimuli/objects/filingcabinet.jpg,1,4,stimuli/white_butterfly.png,0,5,2020-12-18_16h20.43.465,premce3DEU_ses-02_part-01_label-phase1,2020.1.2,MacIntel,60,,,,,left,0,0.904,0,4,4,4,1,,,,,,,,
,,,,,0,"[0,1,1,0,0,0,1,1,1,1,0,1,1,1,0,1,0,0,0,0,1,1,0,1,0,0,0,1,0,1,1,1,1,0,1,1,1,1,1,1,1,1,1,1,1,1,1,1,1,1,1,0,0,0,1,0,0,1,1,1,1,1,1,1,0,0,1,1,0,1,0,1,1,0,0,1,0,1,1,1,1,1,1,1,1,0,1,0,0,0,1,0]",0,,,,,,stimuli/white_butterfly.png,stimuli/grey_butterfly.png,1,stimuli/red_flower.png,stimuli/blue_flower.png,stimuli/yellow_flower.png,stimuli/green_flower.png,down,stimuli/objects/artichoke01b.jpg,1,4,stimuli/white_butterfly.png,0,5,2020-12-18_16h20.43.465,premce3DEU_ses-02_part-01_label-phase1,2020.1.2,MacIntel,60,,,,,right,0,1.831,0,5,5,5,1,,,,,,,,
,,,,,0,"[0,1,1,0,0,0,1,1,1,1,0,1,1,1,0,1,0,0,0,0,1,1,0,1,0,0,0,1,0,1,1,1,1,0,1,1,1,1,1,1,1,1,1,1,1,1,1,1,1,1,1,0,0,0,1,0,0,1,1,1,1,1,1,1,0,0,1,1,0,1,0,1,1,0,0,1,0,1,1,1,1,1,1,1,1,0,1,0,0,0,1,0,0]",0,,,,,,stimuli/grey_butterfly.png,stimuli/white_butterfly.png,2,stimuli/green_flower.png,stimuli/red_flower.png,stimuli/blue_flower.png,stimuli/yellow_flower.png,right,stimuli/objects/escalator.jpg,1,4,stimuli/white_butterfly.png,0,5,2020-12-18_16h20.43.465,premce3DEU_ses-02_part-01_label-phase1,2020.1.2,MacIntel,60,,,,,down,0,2.102,0,6,6,6,1,,,,,,,,
,,,,,0,"[0,1,1,0,0,0,1,1,1,1,0,1,1,1,0,1,0,0,0,0,1,1,0,1,0,0,0,1,0,1,1,1,1,0,1,1,1,1,1,1,1,1,1,1,1,1,1,1,1,1,1,0,0,0,1,0,0,1,1,1,1,1,1,1,0,0,1,1,0,1,0,1,1,0,0,1,0,1,1,1,1,1,1,1,1,0,1,0,0,0,1,0,0,0]",0,,,,,,stimuli/white_butterfly.png,stimuli/grey_butterfly.png,2,stimuli/blue_flower.png,stimuli/yellow_flower.png,stimuli/green_flower.png,stimuli/red_flower.png,left,stimuli/objects/hockeypuck.jpg,1,4,stimuli/grey_butterfly.png,0,5,2020-12-18_16h20.43.465,premce3DEU_ses-02_part-01_label-phase1,2020.1.2,MacIntel,60,,,,,right,0,2.139,0,7,7,7,1,,,,,,,,
,,,,,1,"[0,1,1,0,0,0,1,1,1,1,0,1,1,1,0,1,0,0,0,0,1,1,0,1,0,0,0,1,0,1,1,1,1,0,1,1,1,1,1,1,1,1,1,1,1,1,1,1,1,1,1,0,0,0,1,0,0,1,1,1,1,1,1,1,0,0,1,1,0,1,0,1,1,0,0,1,0,1,1,1,1,1,1,1,1,0,1,0,0,0,1,0,0,0,0]",1,,,,,,stimuli/white_butterfly.png,stimuli/grey_butterfly.png,2,stimuli/red_flower.png,stimuli/green_flower.png,stimuli/blue_flower.png,stimuli/yellow_flower.png,down,stimuli/objects/coffeemaker.jpg,1,4,stimuli/grey_butterfly.png,0,5,2020-12-18_16h20.43.465,premce3DEU_ses-02_part-01_label-phase1,2020.1.2,MacIntel,60,,,,,down,1,0.843,0,8,8,8,1,,,,,,,,
,,,,,0,"[0,1,1,0,0,0,1,1,1,1,0,1,1,1,0,1,0,0,0,0,1,1,0,1,0,0,0,1,0,1,1,1,1,0,1,1,1,1,1,1,1,1,1,1,1,1,1,1,1,1,1,0,0,0,1,0,0,1,1,1,1,1,1,1,0,0,1,1,0,1,0,1,1,0,0,1,0,1,1,1,1,1,1,1,1,0,1,0,0,0,1,0,0,0,0,1]",1,,,,,,stimuli/grey_butterfly.png,stimuli/white_butterfly.png,2,stimuli/blue_flower.png,stimuli/red_flower.png,stimuli/green_flower.png,stimuli/yellow_flower.png,left,stimuli/objects/crab01.jpg,0,4,stimuli/white_butterfly.png,0,5,2020-12-18_16h20.43.465,premce3DEU_ses-02_part-01_label-phase1,2020.1.2,MacIntel,60,,,,,right,0,1.489,0,9,9,9,1,,,,,,,,
,,,,,1,"[0,1,1,0,0,0,1,1,1,1,0,1,1,1,0,1,0,0,0,0,1,1,0,1,0,0,0,1,0,1,1,1,1,0,1,1,1,1,1,1,1,1,1,1,1,1,1,1,1,1,1,0,0,0,1,0,0,1,1,1,1,1,1,1,0,0,1,1,0,1,0,1,1,0,0,1,0,1,1,1,1,1,1,1,1,0,1,0,0,0,1,0,0,0,0,1]",1,,,,,,stimuli/grey_butterfly.png,stimuli/white_butterfly.png,1,stimuli/yellow_flower.png,stimuli/green_flower.png,stimuli/red_flower.png,stimuli/blue_flower.png,left,stimuli/objects/football.jpg,0,4,stimuli/grey_butterfly.png,0,5,2020-12-18_16h20.43.465,premce3DEU_ses-02_part-01_label-phase1,2020.1.2,MacIntel,60,,,,,left,1,1.337,0,10,10,10,1,,,,,,,,
,,,,,1,"[0,1,1,0,0,0,1,1,1,1,0,1,1,1,0,1,0,0,0,0,1,1,0,1,0,0,0,1,0,1,1,1,1,0,1,1,1,1,1,1,1,1,1,1,1,1,1,1,1,1,1,0,0,0,1,0,0,1,1,1,1,1,1,1,0,0,1,1,0,1,0,1,1,0,0,1,0,1,1,1,1,1,1,1,1,0,1,0,0,0,1,0,0,0,0,1]",1,,,,,,stimuli/white_butterfly.png,stimuli/grey_butterfly.png,1,stimuli/green_flower.png,stimuli/yellow_flower.png,stimuli/red_flower.png,stimuli/blue_flower.png,up,stimuli/objects/battleaxe.jpg,1,4,stimuli/white_butterfly.png,0,5,2020-12-18_16h20.43.465,premce3DEU_ses-02_part-01_label-phase1,2020.1.2,MacIntel,60,,,,,up,1,1.175,0,11,11,11,1,,,,,,,,
,,,,,0,"[0,1,1,0,0,0,1,1,1,1,0,1,1,1,0,1,0,0,0,0,1,1,0,1,0,0,0,1,0,1,1,1,1,0,1,1,1,1,1,1,1,1,1,1,1,1,1,1,1,1,1,0,0,0,1,0,0,1,1,1,1,1,1,1,0,0,1,1,0,1,0,1,1,0,0,1,0,1,1,1,1,1,1,1,1,0,1,0,0,0,1,0,0,0,0,1,1]",0,,,,,,stimuli/grey_butterfly.png,stimuli/white_butterfly.png,1,stimuli/blue_flower.png,stimuli/red_flower.png,stimuli/yellow_flower.png,stimuli/green_flower.png,left,stimuli/objects/snowshovel.jpg,1,4,stimuli/grey_butterfly.png,0,5,2020-12-18_16h20.43.465,premce3DEU_ses-02_part-01_label-phase1,2020.1.2,MacIntel,60,,,,,down,0,0.852,0,12,12,12,1,,,,,,,,
,,,,,0,"[0,1,1,0,0,0,1,1,1,1,0,1,1,1,0,1,0,0,0,0,1,1,0,1,0,0,0,1,0,1,1,1,1,0,1,1,1,1,1,1,1,1,1,1,1,1,1,1,1,1,1,0,0,0,1,0,0,1,1,1,1,1,1,1,0,0,1,1,0,1,0,1,1,0,0,1,0,1,1,1,1,1,1,1,1,0,1,0,0,0,1,0,0,0,0,1,1,0]",0,,,,,,stimuli/grey_butterfly.png,stimuli/white_butterfly.png,2,stimuli/red_flower.png,stimuli/green_flower.png,stimuli/blue_flower.png,stimuli/yellow_flower.png,right,stimuli/objects/zebra.jpg,1,4,stimuli/white_butterfly.png,0,5,2020-12-18_16h20.43.465,premce3DEU_ses-02_part-01_label-phase1,2020.1.2,MacIntel,60,,,,,down,0,1.04,0,13,13,13,1,,,,,,,,
,,,,,1,"[0,1,1,0,0,0,1,1,1,1,0,1,1,1,0,1,0,0,0,0,1,1,0,1,0,0,0,1,0,1,1,1,1,0,1,1,1,1,1,1,1,1,1,1,1,1,1,1,1,1,1,0,0,0,1,0,0,1,1,1,1,1,1,1,0,0,1,1,0,1,0,1,1,0,0,1,0,1,1,1,1,1,1,1,1,0,1,0,0,0,1,0,0,0,0,1,1,0,0]",1,,,,,,stimuli/white_butterfly.png,stimuli/grey_butterfly.png,2,stimuli/blue_flower.png,stimuli/green_flower.png,stimuli/red_flower.png,stimuli/yellow_flower.png,left,stimuli/objects/star.jpg,1,4,stimuli/grey_butterfly.png,0,5,2020-12-18_16h20.43.465,premce3DEU_ses-02_part-01_label-phase1,2020.1.2,MacIntel,60,,,,,left,1,0.93,0,14,14,14,1,,,,,,,,
,,,,,1,"[0,1,1,0,0,0,1,1,1,1,0,1,1,1,0,1,0,0,0,0,1,1,0,1,0,0,0,1,0,1,1,1,1,0,1,1,1,1,1,1,1,1,1,1,1,1,1,1,1,1,1,0,0,0,1,0,0,1,1,1,1,1,1,1,0,0,1,1,0,1,0,1,1,0,0,1,0,1,1,1,1,1,1,1,1,0,1,0,0,0,1,0,0,0,0,1,1,0,0,1]",1,,,,,,stimuli/white_butterfly.png,stimuli/grey_butterfly.png,2,stimuli/yellow_flower.png,stimuli/blue_flower.png,stimuli/red_flower.png,stimuli/green_flower.png,up,stimuli/objects/canoepaddle02.jpg,1,4,stimuli/grey_butterfly.png,0,5,2020-12-18_16h20.43.465,premce3DEU_ses-02_part-01_label-phase1,2020.1.2,MacIntel,60,,,,,up,1,0.889,0,15,15,15,1,,,,,,,,
,,,,,0,"[0,1,1,0,0,0,1,1,1,1,0,1,1,1,0,1,0,0,0,0,1,1,0,1,0,0,0,1,0,1,1,1,1,0,1,1,1,1,1,1,1,1,1,1,1,1,1,1,1,1,1,0,0,0,1,0,0,1,1,1,1,1,1,1,0,0,1,1,0,1,0,1,1,0,0,1,0,1,1,1,1,1,1,1,1,0,1,0,0,0,1,0,0,0,0,1,1,0,0,1,1]",1,,,,,,stimuli/grey_butterfly.png,stimuli/white_butterfly.png,1,stimuli/blue_flower.png,stimuli/yellow_flower.png,stimuli/red_flower.png,stimuli/green_flower.png,down,stimuli/objects/balcony02.jpg,0,4,stimuli/grey_butterfly.png,0,5,2020-12-18_16h20.43.465,premce3DEU_ses-02_part-01_label-phase1,2020.1.2,MacIntel,60,,,,,left,0,0.732,0,16,16,16,1,,,,,,,,
,,,,,0,"[0,1,1,0,0,0,1,1,1,1,0,1,1,1,0,1,0,0,0,0,1,1,0,1,0,0,0,1,0,1,1,1,1,0,1,1,1,1,1,1,1,1,1,1,1,1,1,1,1,1,1,0,0,0,1,0,0,1,1,1,1,1,1,1,0,0,1,1,0,1,0,1,1,0,0,1,0,1,1,1,1,1,1,1,1,0,1,0,0,0,1,0,0,0,0,1,1,0,0,1,1]",1,,,,,,stimuli/grey_butterfly.png,stimuli/white_butterfly.png,2,stimuli/yellow_flower.png,stimuli/blue_flower.png,stimuli/green_flower.png,stimuli/red_flower.png,right,stimuli/objects/doghouse.jpg,0,4,stimuli/white_butterfly.png,0,5,2020-12-18_16h20.43.465,premce3DEU_ses-02_part-01_label-phase1,2020.1.2,MacIntel,60,,,,,left,0,1.864,0,17,17,17,1,,,,,,,,
,,,,,1,"[0,1,1,0,0,0,1,1,1,1,0,1,1,1,0,1,0,0,0,0,1,1,0,1,0,0,0,1,0,1,1,1,1,0,1,1,1,1,1,1,1,1,1,1,1,1,1,1,1,1,1,0,0,0,1,0,0,1,1,1,1,1,1,1,0,0,1,1,0,1,0,1,1,0,0,1,0,1,1,1,1,1,1,1,1,0,1,0,0,0,1,0,0,0,0,1,1,0,0,1,1]",1,,,,,,stimuli/white_butterfly.png,stimuli/grey_butterfly.png,2,stimuli/yellow_flower.png,stimuli/green_flower.png,stimuli/red_flower.png,stimuli/blue_flower.png,right,stimuli/objects/butterfly5.jpg,1,4,stimuli/grey_butterfly.png,0,5,2020-12-18_16h20.43.465,premce3DEU_ses-02_part-01_label-phase1,2020.1.2,MacIntel,60,,,,,right,1,0.943,0,18,18,18,1,,,,,,,,
,,,,,0,"[0,1,1,0,0,0,1,1,1,1,0,1,1,1,0,1,0,0,0,0,1,1,0,1,0,0,0,1,0,1,1,1,1,0,1,1,1,1,1,1,1,1,1,1,1,1,1,1,1,1,1,0,0,0,1,0,0,1,1,1,1,1,1,1,0,0,1,1,0,1,0,1,1,0,0,1,0,1,1,1,1,1,1,1,1,0,1,0,0,0,1,0,0,0,0,1,1,0,0,1,1,1]",0,,,,,,stimuli/white_butterfly.png,stimuli/grey_butterfly.png,1,stimuli/green_flower.png,stimuli/red_flower.png,stimuli/blue_flower.png,stimuli/yellow_flower.png,right,stimuli/objects/fishskeleton.jpg,1,4,stimuli/white_butterfly.png,0,5,2020-12-18_16h20.43.465,premce3DEU_ses-02_part-01_label-phase1,2020.1.2,MacIntel,60,,,,,up,0,0.888,0,19,19,19,1,,,,,,,,
,,,,,0,"[0,1,1,0,0,0,1,1,1,1,0,1,1,1,0,1,0,0,0,0,1,1,0,1,0,0,0,1,0,1,1,1,1,0,1,1,1,1,1,1,1,1,1,1,1,1,1,1,1,1,1,0,0,0,1,0,0,1,1,1,1,1,1,1,0,0,1,1,0,1,0,1,1,0,0,1,0,1,1,1,1,1,1,1,1,0,1,0,0,0,1,0,0,0,0,1,1,0,0,1,1,1,0]",0,,,,,,stimuli/white_butterfly.png,stimuli/grey_butterfly.png,2,stimuli/blue_flower.png,stimuli/green_flower.png,stimuli/yellow_flower.png,stimuli/red_flower.png,up,stimuli/objects/bathtub.jpg,0,4,stimuli/grey_butterfly.png,0,5,2020-12-18_16h20.43.465,premce3DEU_ses-02_part-01_label-phase1,2020.1.2,MacIntel,60,,,,,right,0,1.469,0,20,20,20,1,,,,,,,,
,,,,,0,"[0,1,1,0,0,0,1,1,1,1,0,1,1,1,0,1,0,0,0,0,1,1,0,1,0,0,0,1,0,1,1,1,1,0,1,1,1,1,1,1,1,1,1,1,1,1,1,1,1,1,1,0,0,0,1,0,0,1,1,1,1,1,1,1,0,0,1,1,0,1,0,1,1,0,0,1,0,1,1,1,1,1,1,1,1,0,1,0,0,0,1,0,0,0,0,1,1,0,0,1,1,1,0]",0,,,,,,stimuli/white_butterfly.png,stimuli/grey_butterfly.png,2,stimuli/yellow_flower.png,stimuli/red_flower.png,stimuli/green_flower.png,stimuli/blue_flower.png,right,stimuli/objects/cork02.jpg,1,4,stimuli/grey_butterfly.png,1,5,2020-12-18_16h20.43.465,premce3DEU_ses-02_part-01_label-phase1,2020.1.2,MacIntel,60,,,,,down,0,0.509,0,21,21,21,1,,,,,,,,
,,,,,1,"[0,1,1,0,0,0,1,1,1,1,0,1,1,1,0,1,0,0,0,0,1,1,0,1,0,0,0,1,0,1,1,1,1,0,1,1,1,1,1,1,1,1,1,1,1,1,1,1,1,1,1,0,0,0,1,0,0,1,1,1,1,1,1,1,0,0,1,1,0,1,0,1,1,0,0,1,0,1,1,1,1,1,1,1,1,0,1,0,0,0,1,0,0,0,0,1,1,0,0,1,1,1,0,0]",1,,,,,,stimuli/grey_butterfly.png,stimuli/white_butterfly.png,1,stimuli/red_flower.png,stimuli/blue_flower.png,stimuli/green_flower.png,stimuli/yellow_flower.png,up,stimuli/objects/xylophone.jpg,1,4,stimuli/grey_butterfly.png,1,5,2020-12-18_16h20.43.465,premce3DEU_ses-02_part-01_label-phase1,2020.1.2,MacIntel,60,,,,,up,1,0.729,0,22,22,22,1,,,,,,,,
,,,,,0,"[0,1,1,0,0,0,1,1,1,1,0,1,1,1,0,1,0,0,0,0,1,1,0,1,0,0,0,1,0,1,1,1,1,0,1,1,1,1,1,1,1,1,1,1,1,1,1,1,1,1,1,0,0,0,1,0,0,1,1,1,1,1,1,1,0,0,1,1,0,1,0,1,1,0,0,1,0,1,1,1,1,1,1,1,1,0,1,0,0,0,1,0,0,0,0,1,1,0,0,1,1,1,0,0,1]",0,,,,,,stimuli/white_butterfly.png,stimuli/grey_butterfly.png,1,stimuli/red_flower.png,stimuli/green_flower.png,stimuli/blue_flower.png,stimuli/yellow_flower.png,right,stimuli/objects/apron.jpg,1,4,stimuli/white_butterfly.png,1,5,2020-12-18_16h20.43.465,premce3DEU_ses-02_part-01_label-phase1,2020.1.2,MacIntel,60,,,,,down,0,1.984,0,23,23,23,1,,,,,,,,
,,,,,1,"[0,1,1,0,0,0,1,1,1,1,0,1,1,1,0,1,0,0,0,0,1,1,0,1,0,0,0,1,0,1,1,1,1,0,1,1,1,1,1,1,1,1,1,1,1,1,1,1,1,1,1,0,0,0,1,0,0,1,1,1,1,1,1,1,0,0,1,1,0,1,0,1,1,0,0,1,0,1,1,1,1,1,1,1,1,0,1,0,0,0,1,0,0,0,0,1,1,0,0,1,1,1,0,0,1,0]",1,,,,,,stimuli/white_butterfly.png,stimuli/grey_butterfly.png,2,stimuli/blue_flower.png,stimuli/red_flower.png,stimuli/green_flower.png,stimuli/yellow_flower.png,left,stimuli/objects/brownsugar.jpg,1,4,stimuli/grey_butterfly.png,1,5,2020-12-18_16h20.43.465,premce3DEU_ses-02_part-01_label-phase1,2020.1.2,MacIntel,60,,,,,left,1,0.915,0,24,24,24,1,,,,,,,,
,,,,,1,"[0,1,1,0,0,0,1,1,1,1,0,1,1,1,0,1,0,0,0,0,1,1,0,1,0,0,0,1,0,1,1,1,1,0,1,1,1,1,1,1,1,1,1,1,1,1,1,1,1,1,1,0,0,0,1,0,0,1,1,1,1,1,1,1,0,0,1,1,0,1,0,1,1,0,0,1,0,1,1,1,1,1,1,1,1,0,1,0,0,0,1,0,0,0,0,1,1,0,0,1,1,1,0,0,1,0,1]",1,,,,,,stimuli/grey_butterfly.png,stimuli/white_butterfly.png,1,stimuli/yellow_flower.png,stimuli/red_flower.png,stimuli/green_flower.png,stimuli/blue_flower.png,right,stimuli/objects/table01.jpg,1,4,stimuli/grey_butterfly.png,1,5,2020-12-18_16h20.43.465,premce3DEU_ses-02_part-01_label-phase1,2020.1.2,MacIntel,60,,,,,right,1,0.686,0,25,25,25,1,,,,,,,,
,,,,,1,"[0,1,1,0,0,0,1,1,1,1,0,1,1,1,0,1,0,0,0,0,1,1,0,1,0,0,0,1,0,1,1,1,1,0,1,1,1,1,1,1,1,1,1,1,1,1,1,1,1,1,1,0,0,0,1,0,0,1,1,1,1,1,1,1,0,0,1,1,0,1,0,1,1,0,0,1,0,1,1,1,1,1,1,1,1,0,1,0,0,0,1,0,0,0,0,1,1,0,0,1,1,1,0,0,1,0,1,1]",1,,,,,,stimuli/grey_butterfly.png,stimuli/white_butterfly.png,1,stimuli/red_flower.png,stimuli/green_flower.png,stimuli/blue_flower.png,stimuli/yellow_flower.png,down,stimuli/objects/toyanimal05.jpg,1,4,stimuli/grey_butterfly.png,1,5,2020-12-18_16h20.43.465,premce3DEU_ses-02_part-01_label-phase1,2020.1.2,MacIntel,60,,,,,down,1,0.492,0,26,26,26,1,,,,,,,,
,,,,,1,"[0,1,1,0,0,0,1,1,1,1,0,1,1,1,0,1,0,0,0,0,1,1,0,1,0,0,0,1,0,1,1,1,1,0,1,1,1,1,1,1,1,1,1,1,1,1,1,1,1,1,1,0,0,0,1,0,0,1,1,1,1,1,1,1,0,0,1,1,0,1,0,1,1,0,0,1,0,1,1,1,1,1,1,1,1,0,1,0,0,0,1,0,0,0,0,1,1,0,0,1,1,1,0,0,1,0,1,1,1]",1,,,,,,stimuli/white_butterfly.png,stimuli/grey_butterfly.png,1,stimuli/red_flower.png,stimuli/yellow_flower.png,stimuli/blue_flower.png,stimuli/green_flower.png,up,stimuli/objects/jellybean.jpg,1,4,stimuli/white_butterfly.png,1,5,2020-12-18_16h20.43.465,premce3DEU_ses-02_part-01_label-phase1,2020.1.2,MacIntel,60,,,,,up,1,0.711,0,27,27,27,1,,,,,,,,
,,,,,1,"[0,1,1,0,0,0,1,1,1,1,0,1,1,1,0,1,0,0,0,0,1,1,0,1,0,0,0,1,0,1,1,1,1,0,1,1,1,1,1,1,1,1,1,1,1,1,1,1,1,1,1,0,0,0,1,0,0,1,1,1,1,1,1,1,0,0,1,1,0,1,0,1,1,0,0,1,0,1,1,1,1,1,1,1,1,0,1,0,0,0,1,0,0,0,0,1,1,0,0,1,1,1,0,0,1,0,1,1,1,1]",1,,,,,,stimuli/grey_butterfly.png,stimuli/white_butterfly.png,2,stimuli/green_flower.png,stimuli/yellow_flower.png,stimuli/red_flower.png,stimuli/blue_flower.png,up,stimuli/objects/jokercard.jpg,1,4,stimuli/white_butterfly.png,1,5,2020-12-18_16h20.43.465,premce3DEU_ses-02_part-01_label-phase1,2020.1.2,MacIntel,60,,,,,up,1,0.486,0,28,28,28,1,,,,,,,,
,,,,,1,"[0,1,1,0,0,0,1,1,1,1,0,1,1,1,0,1,0,0,0,0,1,1,0,1,0,0,0,1,0,1,1,1,1,0,1,1,1,1,1,1,1,1,1,1,1,1,1,1,1,1,1,0,0,0,1,0,0,1,1,1,1,1,1,1,0,0,1,1,0,1,0,1,1,0,0,1,0,1,1,1,1,1,1,1,1,0,1,0,0,0,1,0,0,0,0,1,1,0,0,1,1,1,0,0,1,0,1,1,1,1,1]",1,,,,,,stimuli/white_butterfly.png,stimuli/grey_butterfly.png,1,stimuli/yellow_flower.png,stimuli/green_flower.png,stimuli/red_flower.png,stimuli/blue_flower.png,left,stimuli/objects/seagull.jpg,1,4,stimuli/white_butterfly.png,1,5,2020-12-18_16h20.43.465,premce3DEU_ses-02_part-01_label-phase1,2020.1.2,MacIntel,60,,,,,left,1,0.782,0,29,29,29,1,,,,,,,,
,,,,,0,"[0,1,1,0,0,0,1,1,1,1,0,1,1,1,0,1,0,0,0,0,1,1,0,1,0,0,0,1,0,1,1,1,1,0,1,1,1,1,1,1,1,1,1,1,1,1,1,1,1,1,1,0,0,0,1,0,0,1,1,1,1,1,1,1,0,0,1,1,0,1,0,1,1,0,0,1,0,1,1,1,1,1,1,1,1,0,1,0,0,0,1,0,0,0,0,1,1,0,0,1,1,1,0,0,1,0,1,1,1,1,1,1]",0,,,,,,stimuli/white_butterfly.png,stimuli/grey_butterfly.png,1,stimuli/blue_flower.png,stimuli/green_flower.png,stimuli/red_flower.png,stimuli/yellow_flower.png,right,stimuli/objects/surfboard.jpg,1,4,stimuli/white_butterfly.png,1,5,2020-12-18_16h20.43.465,premce3DEU_ses-02_part-01_label-phase1,2020.1.2,MacIntel,60,,,,,left,0,2.015,0,30,30,30,1,,,,,,,,
,,,,,0,"[0,1,1,0,0,0,1,1,1,1,0,1,1,1,0,1,0,0,0,0,1,1,0,1,0,0,0,1,0,1,1,1,1,0,1,1,1,1,1,1,1,1,1,1,1,1,1,1,1,1,1,0,0,0,1,0,0,1,1,1,1,1,1,1,0,0,1,1,0,1,0,1,1,0,0,1,0,1,1,1,1,1,1,1,1,0,1,0,0,0,1,0,0,0,0,1,1,0,0,1,1,1,0,0,1,0,1,1,1,1,1,1,0]",0,,,,,,stimuli/white_butterfly.png,stimuli/grey_butterfly.png,1,stimuli/green_flower.png,stimuli/red_flower.png,stimuli/yellow_flower.png,stimuli/blue_flower.png,left,stimuli/objects/handheldtelescope.jpg,0,4,stimuli/white_butterfly.png,1,5,2020-12-18_16h20.43.465,premce3DEU_ses-02_part-01_label-phase1,2020.1.2,MacIntel,60,,,,,down,0,0.955,0,31,31,31,1,,,,,,,,
,,,,,0,"[0,1,1,0,0,0,1,1,1,1,0,1,1,1,0,1,0,0,0,0,1,1,0,1,0,0,0,1,0,1,1,1,1,0,1,1,1,1,1,1,1,1,1,1,1,1,1,1,1,1,1,0,0,0,1,0,0,1,1,1,1,1,1,1,0,0,1,1,0,1,0,1,1,0,0,1,0,1,1,1,1,1,1,1,1,0,1,0,0,0,1,0,0,0,0,1,1,0,0,1,1,1,0,0,1,0,1,1,1,1,1,1,0]",0,,,,,,stimuli/grey_butterfly.png,stimuli/white_butterfly.png,2,stimuli/blue_flower.png,stimuli/green_flower.png,stimuli/yellow_flower.png,stimuli/red_flower.png,down,stimuli/objects/sailboat.jpg,1,4,stimuli/white_butterfly.png,1,5,2020-12-18_16h20.43.465,premce3DEU_ses-02_part-01_label-phase1,2020.1.2,MacIntel,60,,,,,up,0,0.735,0,32,32,32,1,,,,,,,,
,,,,,1,"[0,1,1,0,0,0,1,1,1,1,0,1,1,1,0,1,0,0,0,0,1,1,0,1,0,0,0,1,0,1,1,1,1,0,1,1,1,1,1,1,1,1,1,1,1,1,1,1,1,1,1,0,0,0,1,0,0,1,1,1,1,1,1,1,0,0,1,1,0,1,0,1,1,0,0,1,0,1,1,1,1,1,1,1,1,0,1,0,0,0,1,0,0,0,0,1,1,0,0,1,1,1,0,0,1,0,1,1,1,1,1,1,0,0]",1,,,,,,stimuli/grey_butterfly.png,stimuli/white_butterfly.png,2,stimuli/yellow_flower.png,stimuli/green_flower.png,stimuli/blue_flower.png,stimuli/red_flower.png,left,stimuli/objects/duck01.jpg,1,4,stimuli/white_butterfly.png,1,5,2020-12-18_16h20.43.465,premce3DEU_ses-02_part-01_label-phase1,2020.1.2,MacIntel,60,,,,,left,1,0.827,0,33,33,33,1,,,,,,,,
,,,,,1,"[0,1,1,0,0,0,1,1,1,1,0,1,1,1,0,1,0,0,0,0,1,1,0,1,0,0,0,1,0,1,1,1,1,0,1,1,1,1,1,1,1,1,1,1,1,1,1,1,1,1,1,0,0,0,1,0,0,1,1,1,1,1,1,1,0,0,1,1,0,1,0,1,1,0,0,1,0,1,1,1,1,1,1,1,1,0,1,0,0,0,1,0,0,0,0,1,1,0,0,1,1,1,0,0,1,0,1,1,1,1,1,1,0,0,1]",1,,,,,,stimuli/white_butterfly.png,stimuli/grey_butterfly.png,2,stimuli/green_flower.png,stimuli/blue_flower.png,stimuli/yellow_flower.png,stimuli/red_flower.png,up,stimuli/objects/butterfly1.jpg,1,4,stimuli/grey_butterfly.png,1,5,2020-12-18_16h20.43.465,premce3DEU_ses-02_part-01_label-phase1,2020.1.2,MacIntel,60,,,,,up,1,1.016,0,34,34,34,1,,,,,,,,
,,,,,1,"[0,1,1,0,0,0,1,1,1,1,0,1,1,1,0,1,0,0,0,0,1,1,0,1,0,0,0,1,0,1,1,1,1,0,1,1,1,1,1,1,1,1,1,1,1,1,1,1,1,1,1,0,0,0,1,0,0,1,1,1,1,1,1,1,0,0,1,1,0,1,0,1,1,0,0,1,0,1,1,1,1,1,1,1,1,0,1,0,0,0,1,0,0,0,0,1,1,0,0,1,1,1,0,0,1,0,1,1,1,1,1,1,0,0,1,1]",1,,,,,,stimuli/grey_butterfly.png,stimuli/white_butterfly.png,2,stimuli/yellow_flower.png,stimuli/red_flower.png,stimuli/green_flower.png,stimuli/blue_flower.png,left,stimuli/objects/volleyball.jpg,1,4,stimuli/white_butterfly.png,1,5,2020-12-18_16h20.43.465,premce3DEU_ses-02_part-01_label-phase1,2020.1.2,MacIntel,60,,,,,left,1,0.819,0,35,35,35,1,,,,,,,,
,,,,,1,"[0,1,1,0,0,0,1,1,1,1,0,1,1,1,0,1,0,0,0,0,1,1,0,1,0,0,0,1,0,1,1,1,1,0,1,1,1,1,1,1,1,1,1,1,1,1,1,1,1,1,1,0,0,0,1,0,0,1,1,1,1,1,1,1,0,0,1,1,0,1,0,1,1,0,0,1,0,1,1,1,1,1,1,1,1,0,1,0,0,0,1,0,0,0,0,1,1,0,0,1,1,1,0,0,1,0,1,1,1,1,1,1,0,0,1,1,1]",1,,,,,,stimuli/grey_butterfly.png,stimuli/white_butterfly.png,2,stimuli/yellow_flower.png,stimuli/blue_flower.png,stimuli/red_flower.png,stimuli/green_flower.png,left,stimuli/objects/hotdog.jpg,1,4,stimuli/white_butterfly.png,1,5,2020-12-18_16h20.43.465,premce3DEU_ses-02_part-01_label-phase1,2020.1.2,MacIntel,60,,,,,left,1,0.702,0,36,36,36,1,,,,,,,,
,,,,,1,"[0,1,1,0,0,0,1,1,1,1,0,1,1,1,0,1,0,0,0,0,1,1,0,1,0,0,0,1,0,1,1,1,1,0,1,1,1,1,1,1,1,1,1,1,1,1,1,1,1,1,1,0,0,0,1,0,0,1,1,1,1,1,1,1,0,0,1,1,0,1,0,1,1,0,0,1,0,1,1,1,1,1,1,1,1,0,1,0,0,0,1,0,0,0,0,1,1,0,0,1,1,1,0,0,1,0,1,1,1,1,1,1,0,0,1,1,1,1]",1,,,,,,stimuli/white_butterfly.png,stimuli/grey_butterfly.png,2,stimuli/red_flower.png,stimuli/yellow_flower.png,stimuli/green_flower.png,stimuli/blue_flower.png,right,stimuli/objects/cruiseship.jpg,1,4,stimuli/grey_butterfly.png,1,5,2020-12-18_16h20.43.465,premce3DEU_ses-02_part-01_label-phase1,2020.1.2,MacIntel,60,,,,,right,1,0.911,0,37,37,37,1,,,,,,,,
,,,,,1,"[0,1,1,0,0,0,1,1,1,1,0,1,1,1,0,1,0,0,0,0,1,1,0,1,0,0,0,1,0,1,1,1,1,0,1,1,1,1,1,1,1,1,1,1,1,1,1,1,1,1,1,0,0,0,1,0,0,1,1,1,1,1,1,1,0,0,1,1,0,1,0,1,1,0,0,1,0,1,1,1,1,1,1,1,1,0,1,0,0,0,1,0,0,0,0,1,1,0,0,1,1,1,0,0,1,0,1,1,1,1,1,1,0,0,1,1,1,1,1]",1,,,,,,stimuli/grey_butterfly.png,stimuli/white_butterfly.png,2,stimuli/blue_flower.png,stimuli/green_flower.png,stimuli/red_flower.png,stimuli/yellow_flower.png,right,stimuli/objects/barrel01.jpg,1,4,stimuli/white_butterfly.png,1,5,2020-12-18_16h20.43.465,premce3DEU_ses-02_part-01_label-phase1,2020.1.2,MacIntel,60,,,,,right,1,0.693,0,38,38,38,1,,,,,,,,
,,,,,1,"[0,1,1,0,0,0,1,1,1,1,0,1,1,1,0,1,0,0,0,0,1,1,0,1,0,0,0,1,0,1,1,1,1,0,1,1,1,1,1,1,1,1,1,1,1,1,1,1,1,1,1,0,0,0,1,0,0,1,1,1,1,1,1,1,0,0,1,1,0,1,0,1,1,0,0,1,0,1,1,1,1,1,1,1,1,0,1,0,0,0,1,0,0,0,0,1,1,0,0,1,1,1,0,0,1,0,1,1,1,1,1,1,0,0,1,1,1,1,1,1]",1,,,,,,stimuli/white_butterfly.png,stimuli/grey_butterfly.png,2,stimuli/green_flower.png,stimuli/yellow_flower.png,stimuli/red_flower.png,stimuli/blue_flower.png,right,stimuli/objects/doubledoors.jpg,1,4,stimuli/grey_butterfly.png,1,5,2020-12-18_16h20.43.465,premce3DEU_ses-02_part-01_label-phase1,2020.1.2,MacIntel,60,,,,,right,1,0.659,0,39,39,39,1,,,,,,,,
,,,,,1,"[0,1,1,0,0,0,1,1,1,1,0,1,1,1,0,1,0,0,0,0,1,1,0,1,0,0,0,1,0,1,1,1,1,0,1,1,1,1,1,1,1,1,1,1,1,1,1,1,1,1,1,0,0,0,1,0,0,1,1,1,1,1,1,1,0,0,1,1,0,1,0,1,1,0,0,1,0,1,1,1,1,1,1,1,1,0,1,0,0,0,1,0,0,0,0,1,1,0,0,1,1,1,0,0,1,0,1,1,1,1,1,1,0,0,1,1,1,1,1,1,1]",1,,,,,,stimuli/grey_butterfly.png,stimuli/white_butterfly.png,1,stimuli/blue_flower.png,stimuli/yellow_flower.png,stimuli/green_flower.png,stimuli/red_flower.png,left,stimuli/objects/stepladder.jpg,1,4,stimuli/grey_butterfly.png,1,5,2020-12-18_16h20.43.465,premce3DEU_ses-02_part-01_label-phase1,2020.1.2,MacIntel,60,,,,,left,1,1.33,0,40,40,40,1,,,,,,,,
,,,,,1,"[0,1,1,0,0,0,1,1,1,1,0,1,1,1,0,1,0,0,0,0,1,1,0,1,0,0,0,1,0,1,1,1,1,0,1,1,1,1,1,1,1,1,1,1,1,1,1,1,1,1,1,0,0,0,1,0,0,1,1,1,1,1,1,1,0,0,1,1,0,1,0,1,1,0,0,1,0,1,1,1,1,1,1,1,1,0,1,0,0,0,1,0,0,0,0,1,1,0,0,1,1,1,0,0,1,0,1,1,1,1,1,1,0,0,1,1,1,1,1,1,1,1]",1,,,,,,stimuli/white_butterfly.png,stimuli/grey_butterfly.png,2,stimuli/red_flower.png,stimuli/yellow_flower.png,stimuli/blue_flower.png,stimuli/green_flower.png,down,stimuli/objects/hockeystick.jpg,1,4,stimuli/grey_butterfly.png,1,5,2020-12-18_16h20.43.465,premce3DEU_ses-02_part-01_label-phase1,2020.1.2,MacIntel,60,,,,,down,1,0.776,0,41,41,41,1,,,,,,,,
,,,,,,,,,,,,,,,,,,,,,,,,,,5,2020-12-18_16h20.43.465,premce3DEU_ses-02_part-01_label-phase1,2020.1.2,MacIntel,60,,,,,,,,,,,,,0,2,2,2,1,condition_files/tasklistC2.csv,,
,,,,,0,"[0,1,1,0,0,0,1,1,1,1,0,1,1,1,0,1,0,0,0,0,1,1,0,1,0,0,0,1,0,1,1,1,1,0,1,1,1,1,1,1,1,1,1,1,1,1,1,1,1,1,1,0,0,0,1,0,0,1,1,1,1,1,1,1,0,0,1,1,0,1,0,1,1,0,0,1,0,1,1,1,1,1,1,1,1,0,1,0,0,0,1,0,0,0,0,1,1,0,0,1,1,1,0,0,1,0,1,1,1,1,1,1,0,0,1,1,1,1,1,1,1,1,1]",1,,,,,,stimuli/grey_butterfly.png,stimuli/white_butterfly.png,1,stimuli/red_flower.png,stimuli/green_flower.png,stimuli/yellow_flower.png,stimuli/blue_flower.png,down,stimuli/objects/forklift.jpg,0,5,stimuli/grey_butterfly.png,0,5,2020-12-18_16h20.43.465,premce3DEU_ses-02_part-01_label-phase1,2020.1.2,MacIntel,60,,,,,right,0,0.553,0,0,0,0,1,,,,,,,,
,,,,,0,"[0,1,1,0,0,0,1,1,1,1,0,1,1,1,0,1,0,0,0,0,1,1,0,1,0,0,0,1,0,1,1,1,1,0,1,1,1,1,1,1,1,1,1,1,1,1,1,1,1,1,1,0,0,0,1,0,0,1,1,1,1,1,1,1,0,0,1,1,0,1,0,1,1,0,0,1,0,1,1,1,1,1,1,1,1,0,1,0,0,0,1,0,0,0,0,1,1,0,0,1,1,1,0,0,1,0,1,1,1,1,1,1,0,0,1,1,1,1,1,1,1,1,1]",0,,,,,,stimuli/white_butterfly.png,stimuli/grey_butterfly.png,1,stimuli/yellow_flower.png,stimuli/red_flower.png,stimuli/blue_flower.png,stimuli/green_flower.png,up,stimuli/objects/rockingchair.jpg,1,5,stimuli/white_butterfly.png,0,5,2020-12-18_16h20.43.465,premce3DEU_ses-02_part-01_label-phase1,2020.1.2,MacIntel,60,,,,,down,0,1.482,0,1,1,1,1,,,,,,,,
,,,,,1,"[0,1,1,0,0,0,1,1,1,1,0,1,1,1,0,1,0,0,0,0,1,1,0,1,0,0,0,1,0,1,1,1,1,0,1,1,1,1,1,1,1,1,1,1,1,1,1,1,1,1,1,0,0,0,1,0,0,1,1,1,1,1,1,1,0,0,1,1,0,1,0,1,1,0,0,1,0,1,1,1,1,1,1,1,1,0,1,0,0,0,1,0,0,0,0,1,1,0,0,1,1,1,0,0,1,0,1,1,1,1,1,1,0,0,1,1,1,1,1,1,1,1,1,0]",1,,,,,,stimuli/grey_butterfly.png,stimuli/white_butterfly.png,2,stimuli/green_flower.png,stimuli/yellow_flower.png,stimuli/red_flower.png,stimuli/blue_flower.png,down,stimuli/objects/crown.jpg,1,5,stimuli/white_butterfly.png,0,5,2020-12-18_16h20.43.465,premce3DEU_ses-02_part-01_label-phase1,2020.1.2,MacIntel,60,,,,,down,1,0.544,0,2,2,2,1,,,,,,,,
,,,,,1,"[0,1,1,0,0,0,1,1,1,1,0,1,1,1,0,1,0,0,0,0,1,1,0,1,0,0,0,1,0,1,1,1,1,0,1,1,1,1,1,1,1,1,1,1,1,1,1,1,1,1,1,0,0,0,1,0,0,1,1,1,1,1,1,1,0,0,1,1,0,1,0,1,1,0,0,1,0,1,1,1,1,1,1,1,1,0,1,0,0,0,1,0,0,0,0,1,1,0,0,1,1,1,0,0,1,0,1,1,1,1,1,1,0,0,1,1,1,1,1,1,1,1,1,0,1]",1,,,,,,stimuli/grey_butterfly.png,stimuli/white_butterfly.png,2,stimuli/green_flower.png,stimuli/blue_flower.png,stimuli/red_flower.png,stimuli/yellow_flower.png,down,stimuli/objects/tulip02.jpg,1,5,stimuli/white_butterfly.png,0,5,2020-12-18_16h20.43.465,premce3DEU_ses-02_part-01_label-phase1,2020.1.2,MacIntel,60,,,,,down,1,0.636,0,3,3,3,1,,,,,,,,
,,,,,1,"[0,1,1,0,0,0,1,1,1,1,0,1,1,1,0,1,0,0,0,0,1,1,0,1,0,0,0,1,0,1,1,1,1,0,1,1,1,1,1,1,1,1,1,1,1,1,1,1,1,1,1,0,0,0,1,0,0,1,1,1,1,1,1,1,0,0,1,1,0,1,0,1,1,0,0,1,0,1,1,1,1,1,1,1,1,0,1,0,0,0,1,0,0,0,0,1,1,0,0,1,1,1,0,0,1,0,1,1,1,1,1,1,0,0,1,1,1,1,1,1,1,1,1,0,1,1]",1,,,,,,stimuli/white_butterfly.png,stimuli/grey_butterfly.png,1,stimuli/blue_flower.png,stimuli/green_flower.png,stimuli/yellow_flower.png,stimuli/red_flower.png,right,stimuli/objects/pirateflag.jpg,1,5,stimuli/white_butterfly.png,0,5,2020-12-18_16h20.43.465,premce3DEU_ses-02_part-01_label-phase1,2020.1.2,MacIntel,60,,,,,right,1,0.98,0,4,4,4,1,,,,,,,,
,,,,,0,"[0,1,1,0,0,0,1,1,1,1,0,1,1,1,0,1,0,0,0,0,1,1,0,1,0,0,0,1,0,1,1,1,1,0,1,1,1,1,1,1,1,1,1,1,1,1,1,1,1,1,1,0,0,0,1,0,0,1,1,1,1,1,1,1,0,0,1,1,0,1,0,1,1,0,0,1,0,1,1,1,1,1,1,1,1,0,1,0,0,0,1,0,0,0,0,1,1,0,0,1,1,1,0,0,1,0,1,1,1,1,1,1,0,0,1,1,1,1,1,1,1,1,1,0,1,1,1]",0,,,,,,stimuli/white_butterfly.png,stimuli/grey_butterfly.png,1,stimuli/green_flower.png,stimuli/blue_flower.png,stimuli/red_flower.png,stimuli/yellow_flower.png,down,stimuli/objects/urinal.jpg,1,5,stimuli/white_butterfly.png,0,5,2020-12-18_16h20.43.465,premce3DEU_ses-02_part-01_label-phase1,2020.1.2,MacIntel,60,,,,,up,0,0.752,0,5,5,5,1,,,,,,,,
,,,,,1,"[0,1,1,0,0,0,1,1,1,1,0,1,1,1,0,1,0,0,0,0,1,1,0,1,0,0,0,1,0,1,1,1,1,0,1,1,1,1,1,1,1,1,1,1,1,1,1,1,1,1,1,0,0,0,1,0,0,1,1,1,1,1,1,1,0,0,1,1,0,1,0,1,1,0,0,1,0,1,1,1,1,1,1,1,1,0,1,0,0,0,1,0,0,0,0,1,1,0,0,1,1,1,0,0,1,0,1,1,1,1,1,1,0,0,1,1,1,1,1,1,1,1,1,0,1,1,1,0]",1,,,,,,stimuli/white_butterfly.png,stimuli/grey_butterfly.png,1,stimuli/green_flower.png,stimuli/yellow_flower.png,stimuli/blue_flower.png,stimuli/red_flower.png,right,stimuli/objects/redonion.jpg,1,5,stimuli/white_butterfly.png,0,5,2020-12-18_16h20.43.465,premce3DEU_ses-02_part-01_label-phase1,2020.1.2,MacIntel,60,,,,,right,1,0.529,0,6,6,6,1,,,,,,,,
,,,,,0,"[0,1,1,0,0,0,1,1,1,1,0,1,1,1,0,1,0,0,0,0,1,1,0,1,0,0,0,1,0,1,1,1,1,0,1,1,1,1,1,1,1,1,1,1,1,1,1,1,1,1,1,0,0,0,1,0,0,1,1,1,1,1,1,1,0,0,1,1,0,1,0,1,1,0,0,1,0,1,1,1,1,1,1,1,1,0,1,0,0,0,1,0,0,0,0,1,1,0,0,1,1,1,0,0,1,0,1,1,1,1,1,1,0,0,1,1,1,1,1,1,1,1,1,0,1,1,1,0,1]",1,,,,,,stimuli/white_butterfly.png,stimuli/grey_butterfly.png,2,stimuli/green_flower.png,stimuli/blue_flower.png,stimuli/red_flower.png,stimuli/yellow_flower.png,down,stimuli/objects/car.jpg,0,5,stimuli/grey_butterfly.png,0,5,2020-12-18_16h20.43.465,premce3DEU_ses-02_part-01_label-phase1,2020.1.2,MacIntel,60,,,,,right,0,1.73,0,7,7,7,1,,,,,,,,
,,,,,0,"[0,1,1,0,0,0,1,1,1,1,0,1,1,1,0,1,0,0,0,0,1,1,0,1,0,0,0,1,0,1,1,1,1,0,1,1,1,1,1,1,1,1,1,1,1,1,1,1,1,1,1,0,0,0,1,0,0,1,1,1,1,1,1,1,0,0,1,1,0,1,0,1,1,0,0,1,0,1,1,1,1,1,1,1,1,0,1,0,0,0,1,0,0,0,0,1,1,0,0,1,1,1,0,0,1,0,1,1,1,1,1,1,0,0,1,1,1,1,1,1,1,1,1,0,1,1,1,0,1]",0,,,,,,stimuli/grey_butterfly.png,stimuli/white_butterfly.png,2,stimuli/blue_flower.png,stimuli/green_flower.png,stimuli/red_flower.png,stimuli/yellow_flower.png,down,stimuli/objects/handbrush02.jpg,1,5,stimuli/white_butterfly.png,0,5,2020-12-18_16h20.43.465,premce3DEU_ses-02_part-01_label-phase1,2020.1.2,MacIntel,60,,,,,left,0,1.401,0,8,8,8,1,,,,,,,,
,,,,,0,"[0,1,1,0,0,0,1,1,1,1,0,1,1,1,0,1,0,0,0,0,1,1,0,1,0,0,0,1,0,1,1,1,1,0,1,1,1,1,1,1,1,1,1,1,1,1,1,1,1,1,1,0,0,0,1,0,0,1,1,1,1,1,1,1,0,0,1,1,0,1,0,1,1,0,0,1,0,1,1,1,1,1,1,1,1,0,1,0,0,0,1,0,0,0,0,1,1,0,0,1,1,1,0,0,1,0,1,1,1,1,1,1,0,0,1,1,1,1,1,1,1,1,1,0,1,1,1,0,1,0]",0,,,,,,stimuli/white_butterfly.png,stimuli/grey_butterfly.png,2,stimuli/green_flower.png,stimuli/yellow_flower.png,stimuli/blue_flower.png,stimuli/red_flower.png,left,stimuli/objects/horse.jpg,1,5,stimuli/grey_butterfly.png,0,5,2020-12-18_16h20.43.465,premce3DEU_ses-02_part-01_label-phase1,2020.1.2,MacIntel,60,,,,,down,0,0.594,0,9,9,9,1,,,,,,,,
,,,,,1,"[0,1,1,0,0,0,1,1,1,1,0,1,1,1,0,1,0,0,0,0,1,1,0,1,0,0,0,1,0,1,1,1,1,0,1,1,1,1,1,1,1,1,1,1,1,1,1,1,1,1,1,0,0,0,1,0,0,1,1,1,1,1,1,1,0,0,1,1,0,1,0,1,1,0,0,1,0,1,1,1,1,1,1,1,1,0,1,0,0,0,1,0,0,0,0,1,1,0,0,1,1,1,0,0,1,0,1,1,1,1,1,1,0,0,1,1,1,1,1,1,1,1,1,0,1,1,1,0,1,0,0]",1,,,,,,stimuli/white_butterfly.png,stimuli/grey_butterfly.png,2,stimuli/green_flower.png,stimuli/red_flower.png,stimuli/blue_flower.png,stimuli/yellow_flower.png,left,stimuli/objects/asianelephant.jpg,1,5,stimuli/grey_butterfly.png,0,5,2020-12-18_16h20.43.465,premce3DEU_ses-02_part-01_label-phase1,2020.1.2,MacIntel,60,,,,,left,1,0.517,0,10,10,10,1,,,,,,,,
,,,,,1,"[0,1,1,0,0,0,1,1,1,1,0,1,1,1,0,1,0,0,0,0,1,1,0,1,0,0,0,1,0,1,1,1,1,0,1,1,1,1,1,1,1,1,1,1,1,1,1,1,1,1,1,0,0,0,1,0,0,1,1,1,1,1,1,1,0,0,1,1,0,1,0,1,1,0,0,1,0,1,1,1,1,1,1,1,1,0,1,0,0,0,1,0,0,0,0,1,1,0,0,1,1,1,0,0,1,0,1,1,1,1,1,1,0,0,1,1,1,1,1,1,1,1,1,0,1,1,1,0,1,0,0,1]",1,,,,,,stimuli/white_butterfly.png,stimuli/grey_butterfly.png,2,stimuli/blue_flower.png,stimuli/green_flower.png,stimuli/red_flower.png,stimuli/yellow_flower.png,up,stimuli/objects/dartboard.jpg,1,5,stimuli/grey_butterfly.png,0,5,2020-12-18_16h20.43.465,premce3DEU_ses-02_part-01_label-phase1,2020.1.2,MacIntel,60,,,,,up,1,0.631,0,11,11,11,1,,,,,,,,
,,,,,1,"[0,1,1,0,0,0,1,1,1,1,0,1,1,1,0,1,0,0,0,0,1,1,0,1,0,0,0,1,0,1,1,1,1,0,1,1,1,1,1,1,1,1,1,1,1,1,1,1,1,1,1,0,0,0,1,0,0,1,1,1,1,1,1,1,0,0,1,1,0,1,0,1,1,0,0,1,0,1,1,1,1,1,1,1,1,0,1,0,0,0,1,0,0,0,0,1,1,0,0,1,1,1,0,0,1,0,1,1,1,1,1,1,0,0,1,1,1,1,1,1,1,1,1,0,1,1,1,0,1,0,0,1,1]",1,,,,,,stimuli/white_butterfly.png,stimuli/grey_butterfly.png,2,stimuli/red_flower.png,stimuli/yellow_flower.png,stimuli/green_flower.png,stimuli/blue_flower.png,down,stimuli/objects/cactus.jpg,1,5,stimuli/grey_butterfly.png,0,5,2020-12-18_16h20.43.465,premce3DEU_ses-02_part-01_label-phase1,2020.1.2,MacIntel,60,,,,,down,1,0.606,0,12,12,12,1,,,,,,,,
,,,,,1,"[0,1,1,0,0,0,1,1,1,1,0,1,1,1,0,1,0,0,0,0,1,1,0,1,0,0,0,1,0,1,1,1,1,0,1,1,1,1,1,1,1,1,1,1,1,1,1,1,1,1,1,0,0,0,1,0,0,1,1,1,1,1,1,1,0,0,1,1,0,1,0,1,1,0,0,1,0,1,1,1,1,1,1,1,1,0,1,0,0,0,1,0,0,0,0,1,1,0,0,1,1,1,0,0,1,0,1,1,1,1,1,1,0,0,1,1,1,1,1,1,1,1,1,0,1,1,1,0,1,0,0,1,1,1]",1,,,,,,stimuli/grey_butterfly.png,stimuli/white_butterfly.png,2,stimuli/yellow_flower.png,stimuli/green_flower.png,stimuli/red_flower.png,stimuli/blue_flower.png,down,stimuli/objects/birdfeeder.jpg,1,5,stimuli/white_butterfly.png,0,5,2020-12-18_16h20.43.465,premce3DEU_ses-02_part-01_label-phase1,2020.1.2,MacIntel,60,,,,,down,1,0.829,0,13,13,13,1,,,,,,,,
,,,,,0,"[0,1,1,0,0,0,1,1,1,1,0,1,1,1,0,1,0,0,0,0,1,1,0,1,0,0,0,1,0,1,1,1,1,0,1,1,1,1,1,1,1,1,1,1,1,1,1,1,1,1,1,0,0,0,1,0,0,1,1,1,1,1,1,1,0,0,1,1,0,1,0,1,1,0,0,1,0,1,1,1,1,1,1,1,1,0,1,0,0,0,1,0,0,0,0,1,1,0,0,1,1,1,0,0,1,0,1,1,1,1,1,1,0,0,1,1,1,1,1,1,1,1,1,0,1,1,1,0,1,0,0,1,1,1,1]",0,,,,,,stimuli/grey_butterfly.png,stimuli/white_butterfly.png,1,stimuli/blue_flower.png,stimuli/red_flower.png,stimuli/yellow_flower.png,stimuli/green_flower.png,right,stimuli/objects/butterfly1.jpg,1,5,stimuli/grey_butterfly.png,0,5,2020-12-18_16h20.43.465,premce3DEU_ses-02_part-01_label-phase1,2020.1.2,MacIntel,60,,,,,up,0,0.783,0,14,14,14,1,,,,,,,,
,,,,,0,"[0,1,1,0,0,0,1,1,1,1,0,1,1,1,0,1,0,0,0,0,1,1,0,1,0,0,0,1,0,1,1,1,1,0,1,1,1,1,1,1,1,1,1,1,1,1,1,1,1,1,1,0,0,0,1,0,0,1,1,1,1,1,1,1,0,0,1,1,0,1,0,1,1,0,0,1,0,1,1,1,1,1,1,1,1,0,1,0,0,0,1,0,0,0,0,1,1,0,0,1,1,1,0,0,1,0,1,1,1,1,1,1,0,0,1,1,1,1,1,1,1,1,1,0,1,1,1,0,1,0,0,1,1,1,1,0]",0,,,,,,stimuli/grey_butterfly.png,stimuli/white_butterfly.png,1,stimuli/green_flower.png,stimuli/red_flower.png,stimuli/yellow_flower.png,stimuli/blue_flower.png,left,stimuli/objects/skiboot01a.jpg,1,5,stimuli/grey_butterfly.png,0,5,2020-12-18_16h20.43.465,premce3DEU_ses-02_part-01_label-phase1,2020.1.2,MacIntel,60,,,,,up,0,1.204,0,15,15,15,1,,,,,,,,
,,,,,0,"[0,1,1,0,0,0,1,1,1,1,0,1,1,1,0,1,0,0,0,0,1,1,0,1,0,0,0,1,0,1,1,1,1,0,1,1,1,1,1,1,1,1,1,1,1,1,1,1,1,1,1,0,0,0,1,0,0,1,1,1,1,1,1,1,0,0,1,1,0,1,0,1,1,0,0,1,0,1,1,1,1,1,1,1,1,0,1,0,0,0,1,0,0,0,0,1,1,0,0,1,1,1,0,0,1,0,1,1,1,1,1,1,0,0,1,1,1,1,1,1,1,1,1,0,1,1,1,0,1,0,0,1,1,1,1,0,0]",0,,,,,,stimuli/grey_butterfly.png,stimuli/white_butterfly.png,1,stimuli/blue_flower.png,stimuli/green_flower.png,stimuli/red_flower.png,stimuli/yellow_flower.png,up,stimuli/objects/fishingrod.jpg,1,5,stimuli/grey_butterfly.png,0,5,2020-12-18_16h20.43.465,premce3DEU_ses-02_part-01_label-phase1,2020.1.2,MacIntel,60,,,,,down,0,1.721,0,16,16,16,1,,,,,,,,
,,,,,0,"[0,1,1,0,0,0,1,1,1,1,0,1,1,1,0,1,0,0,0,0,1,1,0,1,0,0,0,1,0,1,1,1,1,0,1,1,1,1,1,1,1,1,1,1,1,1,1,1,1,1,1,0,0,0,1,0,0,1,1,1,1,1,1,1,0,0,1,1,0,1,0,1,1,0,0,1,0,1,1,1,1,1,1,1,1,0,1,0,0,0,1,0,0,0,0,1,1,0,0,1,1,1,0,0,1,0,1,1,1,1,1,1,0,0,1,1,1,1,1,1,1,1,1,0,1,1,1,0,1,0,0,1,1,1,1,0,0,0]",0,,,,,,stimuli/white_butterfly.png,stimuli/grey_butterfly.png,1,stimuli/green_flower.png,stimuli/red_flower.png,stimuli/yellow_flower.png,stimuli/blue_flower.png,up,stimuli/objects/fridge.jpg,1,5,stimuli/white_butterfly.png,0,5,2020-12-18_16h20.43.465,premce3DEU_ses-02_part-01_label-phase1,2020.1.2,MacIntel,60,,,,,right,0,1.31,0,17,17,17,1,,,,,,,,
,,,,,1,"[0,1,1,0,0,0,1,1,1,1,0,1,1,1,0,1,0,0,0,0,1,1,0,1,0,0,0,1,0,1,1,1,1,0,1,1,1,1,1,1,1,1,1,1,1,1,1,1,1,1,1,0,0,0,1,0,0,1,1,1,1,1,1,1,0,0,1,1,0,1,0,1,1,0,0,1,0,1,1,1,1,1,1,1,1,0,1,0,0,0,1,0,0,0,0,1,1,0,0,1,1,1,0,0,1,0,1,1,1,1,1,1,0,0,1,1,1,1,1,1,1,1,1,0,1,1,1,0,1,0,0,1,1,1,1,0,0,0,0]",1,,,,,,stimuli/white_butterfly.png,stimuli/grey_butterfly.png,2,stimuli/yellow_flower.png,stimuli/blue_flower.png,stimuli/red_flower.png,stimuli/green_flower.png,right,stimuli/objects/gong.jpg,1,5,stimuli/grey_butterfly.png,0,5,2020-12-18_16h20.43.465,premce3DEU_ses-02_part-01_label-phase1,2020.1.2,MacIntel,60,,,,,right,1,1.832,0,18,18,18,1,,,,,,,,
,,,,,1,"[0,1,1,0,0,0,1,1,1,1,0,1,1,1,0,1,0,0,0,0,1,1,0,1,0,0,0,1,0,1,1,1,1,0,1,1,1,1,1,1,1,1,1,1,1,1,1,1,1,1,1,0,0,0,1,0,0,1,1,1,1,1,1,1,0,0,1,1,0,1,0,1,1,0,0,1,0,1,1,1,1,1,1,1,1,0,1,0,0,0,1,0,0,0,0,1,1,0,0,1,1,1,0,0,1,0,1,1,1,1,1,1,0,0,1,1,1,1,1,1,1,1,1,0,1,1,1,0,1,0,0,1,1,1,1,0,0,0,0,1]",1,,,,,,stimuli/white_butterfly.png,stimuli/grey_butterfly.png,1,stimuli/blue_flower.png,stimuli/red_flower.png,stimuli/green_flower.png,stimuli/yellow_flower.png,up,stimuli/objects/cloud.jpg,1,5,stimuli/white_butterfly.png,0,5,2020-12-18_16h20.43.465,premce3DEU_ses-02_part-01_label-phase1,2020.1.2,MacIntel,60,,,,,up,1,1.497,0,19,19,19,1,,,,,,,,
,,,,,0,"[0,1,1,0,0,0,1,1,1,1,0,1,1,1,0,1,0,0,0,0,1,1,0,1,0,0,0,1,0,1,1,1,1,0,1,1,1,1,1,1,1,1,1,1,1,1,1,1,1,1,1,0,0,0,1,0,0,1,1,1,1,1,1,1,0,0,1,1,0,1,0,1,1,0,0,1,0,1,1,1,1,1,1,1,1,0,1,0,0,0,1,0,0,0,0,1,1,0,0,1,1,1,0,0,1,0,1,1,1,1,1,1,0,0,1,1,1,1,1,1,1,1,1,0,1,1,1,0,1,0,0,1,1,1,1,0,0,0,0,1,1]",0,,,,,,stimuli/grey_butterfly.png,stimuli/white_butterfly.png,1,stimuli/red_flower.png,stimuli/green_flower.png,stimuli/blue_flower.png,stimuli/yellow_flower.png,up,stimuli/objects/acorn.jpg,1,5,stimuli/grey_butterfly.png,0,5,2020-12-18_16h20.43.465,premce3DEU_ses-02_part-01_label-phase1,2020.1.2,MacIntel,60,,,,,left,0,2.168,0,20,20,20,1,,,,,,,,
,,,,,1,"[0,1,1,0,0,0,1,1,1,1,0,1,1,1,0,1,0,0,0,0,1,1,0,1,0,0,0,1,0,1,1,1,1,0,1,1,1,1,1,1,1,1,1,1,1,1,1,1,1,1,1,0,0,0,1,0,0,1,1,1,1,1,1,1,0,0,1,1,0,1,0,1,1,0,0,1,0,1,1,1,1,1,1,1,1,0,1,0,0,0,1,0,0,0,0,1,1,0,0,1,1,1,0,0,1,0,1,1,1,1,1,1,0,0,1,1,1,1,1,1,1,1,1,0,1,1,1,0,1,0,0,1,1,1,1,0,0,0,0,1,1,0]",1,,,,,,stimuli/grey_butterfly.png,stimuli/white_butterfly.png,2,stimuli/blue_flower.png,stimuli/green_flower.png,stimuli/yellow_flower.png,stimuli/red_flower.png,right,stimuli/objects/tent.jpg,1,5,stimuli/white_butterfly.png,1,5,2020-12-18_16h20.43.465,premce3DEU_ses-02_part-01_label-phase1,2020.1.2,MacIntel,60,,,,,right,1,0.708,0,21,21,21,1,,,,,,,,
,,,,,1,"[0,1,1,0,0,0,1,1,1,1,0,1,1,1,0,1,0,0,0,0,1,1,0,1,0,0,0,1,0,1,1,1,1,0,1,1,1,1,1,1,1,1,1,1,1,1,1,1,1,1,1,0,0,0,1,0,0,1,1,1,1,1,1,1,0,0,1,1,0,1,0,1,1,0,0,1,0,1,1,1,1,1,1,1,1,0,1,0,0,0,1,0,0,0,0,1,1,0,0,1,1,1,0,0,1,0,1,1,1,1,1,1,0,0,1,1,1,1,1,1,1,1,1,0,1,1,1,0,1,0,0,1,1,1,1,0,0,0,0,1,1,0,1]",1,,,,,,stimuli/grey_butterfly.png,stimuli/white_butterfly.png,1,stimuli/red_flower.png,stimuli/blue_flower.png,stimuli/green_flower.png,stimuli/yellow_flower.png,down,stimuli/objects/lintroller.jpg,1,5,stimuli/grey_butterfly.png,1,5,2020-12-18_16h20.43.465,premce3DEU_ses-02_part-01_label-phase1,2020.1.2,MacIntel,60,,,,,down,1,0.923,0,22,22,22,1,,,,,,,,
,,,,,1,"[0,1,1,0,0,0,1,1,1,1,0,1,1,1,0,1,0,0,0,0,1,1,0,1,0,0,0,1,0,1,1,1,1,0,1,1,1,1,1,1,1,1,1,1,1,1,1,1,1,1,1,0,0,0,1,0,0,1,1,1,1,1,1,1,0,0,1,1,0,1,0,1,1,0,0,1,0,1,1,1,1,1,1,1,1,0,1,0,0,0,1,0,0,0,0,1,1,0,0,1,1,1,0,0,1,0,1,1,1,1,1,1,0,0,1,1,1,1,1,1,1,1,1,0,1,1,1,0,1,0,0,1,1,1,1,0,0,0,0,1,1,0,1,1]",1,,,,,,stimuli/grey_butterfly.png,stimuli/white_butterfly.png,2,stimuli/yellow_flower.png,stimuli/red_flower.png,stimuli/blue_flower.png,stimuli/green_flower.png,up,stimuli/objects/dalmatian.jpg,1,5,stimuli/white_butterfly.png,1,5,2020-12-18_16h20.43.465,premce3DEU_ses-02_part-01_label-phase1,2020.1.2,MacIntel,60,,,,,up,1,2.146,0,23,23,23,1,,,,,,,,
,,,,,0,"[0,1,1,0,0,0,1,1,1,1,0,1,1,1,0,1,0,0,0,0,1,1,0,1,0,0,0,1,0,1,1,1,1,0,1,1,1,1,1,1,1,1,1,1,1,1,1,1,1,1,1,0,0,0,1,0,0,1,1,1,1,1,1,1,0,0,1,1,0,1,0,1,1,0,0,1,0,1,1,1,1,1,1,1,1,0,1,0,0,0,1,0,0,0,0,1,1,0,0,1,1,1,0,0,1,0,1,1,1,1,1,1,0,0,1,1,1,1,1,1,1,1,1,0,1,1,1,0,1,0,0,1,1,1,1,0,0,0,0,1,1,0,1,1,1]",1,,,,,,stimuli/white_butterfly.png,stimuli/grey_butterfly.png,2,stimuli/blue_flower.png,stimuli/green_flower.png,stimuli/yellow_flower.png,stimuli/red_flower.png,left,stimuli/objects/coffeemachine.jpg,0,5,stimuli/grey_butterfly.png,1,5,2020-12-18_16h20.43.465,premce3DEU_ses-02_part-01_label-phase1,2020.1.2,MacIntel,60,,,,,up,0,0.934,0,24,24,24,1,,,,,,,,
,,,,,0,"[0,1,1,0,0,0,1,1,1,1,0,1,1,1,0,1,0,0,0,0,1,1,0,1,0,0,0,1,0,1,1,1,1,0,1,1,1,1,1,1,1,1,1,1,1,1,1,1,1,1,1,0,0,0,1,0,0,1,1,1,1,1,1,1,0,0,1,1,0,1,0,1,1,0,0,1,0,1,1,1,1,1,1,1,1,0,1,0,0,0,1,0,0,0,0,1,1,0,0,1,1,1,0,0,1,0,1,1,1,1,1,1,0,0,1,1,1,1,1,1,1,1,1,0,1,1,1,0,1,0,0,1,1,1,1,0,0,0,0,1,1,0,1,1,1]",0,,,,,,stimuli/white_butterfly.png,stimuli/grey_butterfly.png,2,stimuli/red_flower.png,stimuli/green_flower.png,stimuli/yellow_flower.png,stimuli/blue_flower.png,up,stimuli/objects/chime.jpg,1,5,stimuli/grey_butterfly.png,1,5,2020-12-18_16h20.43.465,premce3DEU_ses-02_part-01_label-phase1,2020.1.2,MacIntel,60,,,,,right,0,0.701,0,25,25,25,1,,,,,,,,
,,,,,0,"[0,1,1,0,0,0,1,1,1,1,0,1,1,1,0,1,0,0,0,0,1,1,0,1,0,0,0,1,0,1,1,1,1,0,1,1,1,1,1,1,1,1,1,1,1,1,1,1,1,1,1,0,0,0,1,0,0,1,1,1,1,1,1,1,0,0,1,1,0,1,0,1,1,0,0,1,0,1,1,1,1,1,1,1,1,0,1,0,0,0,1,0,0,0,0,1,1,0,0,1,1,1,0,0,1,0,1,1,1,1,1,1,0,0,1,1,1,1,1,1,1,1,1,0,1,1,1,0,1,0,0,1,1,1,1,0,0,0,0,1,1,0,1,1,1,0]",0,,,,,,stimuli/grey_butterfly.png,stimuli/white_butterfly.png,1,stimuli/blue_flower.png,stimuli/red_flower.png,stimuli/green_flower.png,stimuli/yellow_flower.png,down,stimuli/objects/donut.jpg,1,5,stimuli/grey_butterfly.png,1,5,2020-12-18_16h20.43.465,premce3DEU_ses-02_part-01_label-phase1,2020.1.2,MacIntel,60,,,,,up,0,0.793,0,26,26,26,1,,,,,,,,
,,,,,1,"[0,1,1,0,0,0,1,1,1,1,0,1,1,1,0,1,0,0,0,0,1,1,0,1,0,0,0,1,0,1,1,1,1,0,1,1,1,1,1,1,1,1,1,1,1,1,1,1,1,1,1,0,0,0,1,0,0,1,1,1,1,1,1,1,0,0,1,1,0,1,0,1,1,0,0,1,0,1,1,1,1,1,1,1,1,0,1,0,0,0,1,0,0,0,0,1,1,0,0,1,1,1,0,0,1,0,1,1,1,1,1,1,0,0,1,1,1,1,1,1,1,1,1,0,1,1,1,0,1,0,0,1,1,1,1,0,0,0,0,1,1,0,1,1,1,0,0]",1,,,,,,stimuli/white_butterfly.png,stimuli/grey_butterfly.png,2,stimuli/blue_flower.png,stimuli/red_flower.png,stimuli/green_flower.png,stimuli/yellow_flower.png,down,stimuli/objects/locomotive.jpg,1,5,stimuli/grey_butterfly.png,1,5,2020-12-18_16h20.43.465,premce3DEU_ses-02_part-01_label-phase1,2020.1.2,MacIntel,60,,,,,down,1,0.453,0,27,27,27,1,,,,,,,,
,,,,,1,"[0,1,1,0,0,0,1,1,1,1,0,1,1,1,0,1,0,0,0,0,1,1,0,1,0,0,0,1,0,1,1,1,1,0,1,1,1,1,1,1,1,1,1,1,1,1,1,1,1,1,1,0,0,0,1,0,0,1,1,1,1,1,1,1,0,0,1,1,0,1,0,1,1,0,0,1,0,1,1,1,1,1,1,1,1,0,1,0,0,0,1,0,0,0,0,1,1,0,0,1,1,1,0,0,1,0,1,1,1,1,1,1,0,0,1,1,1,1,1,1,1,1,1,0,1,1,1,0,1,0,0,1,1,1,1,0,0,0,0,1,1,0,1,1,1,0,0,1]",1,,,,,,stimuli/grey_butterfly.png,stimuli/white_butterfly.png,1,stimuli/green_flower.png,stimuli/blue_flower.png,stimuli/red_flower.png,stimuli/yellow_flower.png,left,stimuli/objects/triangle.jpg,1,5,stimuli/grey_butterfly.png,1,5,2020-12-18_16h20.43.465,premce3DEU_ses-02_part-01_label-phase1,2020.1.2,MacIntel,60,,,,,left,1,0.735,0,28,28,28,1,,,,,,,,
,,,,,1,"[0,1,1,0,0,0,1,1,1,1,0,1,1,1,0,1,0,0,0,0,1,1,0,1,0,0,0,1,0,1,1,1,1,0,1,1,1,1,1,1,1,1,1,1,1,1,1,1,1,1,1,0,0,0,1,0,0,1,1,1,1,1,1,1,0,0,1,1,0,1,0,1,1,0,0,1,0,1,1,1,1,1,1,1,1,0,1,0,0,0,1,0,0,0,0,1,1,0,0,1,1,1,0,0,1,0,1,1,1,1,1,1,0,0,1,1,1,1,1,1,1,1,1,0,1,1,1,0,1,0,0,1,1,1,1,0,0,0,0,1,1,0,1,1,1,0,0,1,1]",1,,,,,,stimuli/white_butterfly.png,stimuli/grey_butterfly.png,1,stimuli/red_flower.png,stimuli/yellow_flower.png,stimuli/blue_flower.png,stimuli/green_flower.png,left,stimuli/objects/jaguar.jpg,1,5,stimuli/white_butterfly.png,1,5,2020-12-18_16h20.43.465,premce3DEU_ses-02_part-01_label-phase1,2020.1.2,MacIntel,60,,,,,left,1,1.358,0,29,29,29,1,,,,,,,,
,,,,,0,"[0,1,1,0,0,0,1,1,1,1,0,1,1,1,0,1,0,0,0,0,1,1,0,1,0,0,0,1,0,1,1,1,1,0,1,1,1,1,1,1,1,1,1,1,1,1,1,1,1,1,1,0,0,0,1,0,0,1,1,1,1,1,1,1,0,0,1,1,0,1,0,1,1,0,0,1,0,1,1,1,1,1,1,1,1,0,1,0,0,0,1,0,0,0,0,1,1,0,0,1,1,1,0,0,1,0,1,1,1,1,1,1,0,0,1,1,1,1,1,1,1,1,1,0,1,1,1,0,1,0,0,1,1,1,1,0,0,0,0,1,1,0,1,1,1,0,0,1,1,1]",1,,,,,,stimuli/grey_butterfly.png,stimuli/white_butterfly.png,2,stimuli/yellow_flower.png,stimuli/blue_flower.png,stimuli/green_flower.png,stimuli/red_flower.png,left,stimuli/objects/moon.jpg,0,5,stimuli/white_butterfly.png,1,5,2020-12-18_16h20.43.465,premce3DEU_ses-02_part-01_label-phase1,2020.1.2,MacIntel,60,,,,,right,0,0.646,0,30,30,30,1,,,,,,,,
,,,,,0,"[0,1,1,0,0,0,1,1,1,1,0,1,1,1,0,1,0,0,0,0,1,1,0,1,0,0,0,1,0,1,1,1,1,0,1,1,1,1,1,1,1,1,1,1,1,1,1,1,1,1,1,0,0,0,1,0,0,1,1,1,1,1,1,1,0,0,1,1,0,1,0,1,1,0,0,1,0,1,1,1,1,1,1,1,1,0,1,0,0,0,1,0,0,0,0,1,1,0,0,1,1,1,0,0,1,0,1,1,1,1,1,1,0,0,1,1,1,1,1,1,1,1,1,0,1,1,1,0,1,0,0,1,1,1,1,0,0,0,0,1,1,0,1,1,1,0,0,1,1,1]",0,,,,,,stimuli/white_butterfly.png,stimuli/grey_butterfly.png,2,stimuli/yellow_flower.png,stimuli/green_flower.png,stimuli/blue_flower.png,stimuli/red_flower.png,up,stimuli/objects/dromedary.jpg,1,5,stimuli/grey_butterfly.png,1,5,2020-12-18_16h20.43.465,premce3DEU_ses-02_part-01_label-phase1,2020.1.2,MacIntel,60,,,,,right,0,2.353,0,31,31,31,1,,,,,,,,
,,,,,0,"[0,1,1,0,0,0,1,1,1,1,0,1,1,1,0,1,0,0,0,0,1,1,0,1,0,0,0,1,0,1,1,1,1,0,1,1,1,1,1,1,1,1,1,1,1,1,1,1,1,1,1,0,0,0,1,0,0,1,1,1,1,1,1,1,0,0,1,1,0,1,0,1,1,0,0,1,0,1,1,1,1,1,1,1,1,0,1,0,0,0,1,0,0,0,0,1,1,0,0,1,1,1,0,0,1,0,1,1,1,1,1,1,0,0,1,1,1,1,1,1,1,1,1,0,1,1,1,0,1,0,0,1,1,1,1,0,0,0,0,1,1,0,1,1,1,0,0,1,1,1,0]",0,,,,,,stimuli/grey_butterfly.png,stimuli/white_butterfly.png,2,stimuli/green_flower.png,stimuli/red_flower.png,stimuli/blue_flower.png,stimuli/yellow_flower.png,up,stimuli/objects/lantern03.jpg,1,5,stimuli/white_butterfly.png,1,5,2020-12-18_16h20.43.465,premce3DEU_ses-02_part-01_label-phase1,2020.1.2,MacIntel,60,,,,,left,0,1.584,0,32,32,32,1,,,,,,,,
,,,,,0,"[0,1,1,0,0,0,1,1,1,1,0,1,1,1,0,1,0,0,0,0,1,1,0,1,0,0,0,1,0,1,1,1,1,0,1,1,1,1,1,1,1,1,1,1,1,1,1,1,1,1,1,0,0,0,1,0,0,1,1,1,1,1,1,1,0,0,1,1,0,1,0,1,1,0,0,1,0,1,1,1,1,1,1,1,1,0,1,0,0,0,1,0,0,0,0,1,1,0,0,1,1,1,0,0,1,0,1,1,1,1,1,1,0,0,1,1,1,1,1,1,1,1,1,0,1,1,1,0,1,0,0,1,1,1,1,0,0,0,0,1,1,0,1,1,1,0,0,1,1,1,0,0]",0,,,,,,stimuli/grey_butterfly.png,stimuli/white_butterfly.png,1,stimuli/red_flower.png,stimuli/yellow_flower.png,stimuli/blue_flower.png,stimuli/green_flower.png,right,stimuli/objects/stool01.jpg,1,5,stimuli/grey_butterfly.png,1,5,2020-12-18_16h20.43.465,premce3DEU_ses-02_part-01_label-phase1,2020.1.2,MacIntel,60,,,,,left,0,0.72,0,33,33,33,1,,,,,,,,
,,,,,1,"[0,1,1,0,0,0,1,1,1,1,0,1,1,1,0,1,0,0,0,0,1,1,0,1,0,0,0,1,0,1,1,1,1,0,1,1,1,1,1,1,1,1,1,1,1,1,1,1,1,1,1,0,0,0,1,0,0,1,1,1,1,1,1,1,0,0,1,1,0,1,0,1,1,0,0,1,0,1,1,1,1,1,1,1,1,0,1,0,0,0,1,0,0,0,0,1,1,0,0,1,1,1,0,0,1,0,1,1,1,1,1,1,0,0,1,1,1,1,1,1,1,1,1,0,1,1,1,0,1,0,0,1,1,1,1,0,0,0,0,1,1,0,1,1,1,0,0,1,1,1,0,0,0]",1,,,,,,stimuli/grey_butterfly.png,stimuli/white_butterfly.png,2,stimuli/red_flower.png,stimuli/green_flower.png,stimuli/blue_flower.png,stimuli/yellow_flower.png,left,stimuli/objects/porcupine.jpg,1,5,stimuli/white_butterfly.png,1,5,2020-12-18_16h20.43.465,premce3DEU_ses-02_part-01_label-phase1,2020.1.2,MacIntel,60,,,,,left,1,0.742,0,34,34,34,1,,,,,,,,
,,,,,1,"[0,1,1,0,0,0,1,1,1,1,0,1,1,1,0,1,0,0,0,0,1,1,0,1,0,0,0,1,0,1,1,1,1,0,1,1,1,1,1,1,1,1,1,1,1,1,1,1,1,1,1,0,0,0,1,0,0,1,1,1,1,1,1,1,0,0,1,1,0,1,0,1,1,0,0,1,0,1,1,1,1,1,1,1,1,0,1,0,0,0,1,0,0,0,0,1,1,0,0,1,1,1,0,0,1,0,1,1,1,1,1,1,0,0,1,1,1,1,1,1,1,1,1,0,1,1,1,0,1,0,0,1,1,1,1,0,0,0,0,1,1,0,1,1,1,0,0,1,1,1,0,0,0,1]",1,,,,,,stimuli/grey_butterfly.png,stimuli/white_butterfly.png,2,stimuli/blue_flower.png,stimuli/red_flower.png,stimuli/yellow_flower.png,stimuli/green_flower.png,up,stimuli/objects/jellyfish.jpg,1,5,stimuli/white_butterfly.png,1,5,2020-12-18_16h20.43.465,premce3DEU_ses-02_part-01_label-phase1,2020.1.2,MacIntel,60,,,,,up,1,0.612,0,35,35,35,1,,,,,,,,
,,,,,1,"[0,1,1,0,0,0,1,1,1,1,0,1,1,1,0,1,0,0,0,0,1,1,0,1,0,0,0,1,0,1,1,1,1,0,1,1,1,1,1,1,1,1,1,1,1,1,1,1,1,1,1,0,0,0,1,0,0,1,1,1,1,1,1,1,0,0,1,1,0,1,0,1,1,0,0,1,0,1,1,1,1,1,1,1,1,0,1,0,0,0,1,0,0,0,0,1,1,0,0,1,1,1,0,0,1,0,1,1,1,1,1,1,0,0,1,1,1,1,1,1,1,1,1,0,1,1,1,0,1,0,0,1,1,1,1,0,0,0,0,1,1,0,1,1,1,0,0,1,1,1,0,0,0,1,1]",1,,,,,,stimuli/white_butterfly.png,stimuli/grey_butterfly.png,2,stimuli/blue_flower.png,stimuli/yellow_flower.png,stimuli/green_flower.png,stimuli/red_flower.png,down,stimuli/objects/weddingcake.jpg,1,5,stimuli/grey_butterfly.png,1,5,2020-12-18_16h20.43.465,premce3DEU_ses-02_part-01_label-phase1,2020.1.2,MacIntel,60,,,,,down,1,2.015,0,36,36,36,1,,,,,,,,
,,,,,1,"[0,1,1,0,0,0,1,1,1,1,0,1,1,1,0,1,0,0,0,0,1,1,0,1,0,0,0,1,0,1,1,1,1,0,1,1,1,1,1,1,1,1,1,1,1,1,1,1,1,1,1,0,0,0,1,0,0,1,1,1,1,1,1,1,0,0,1,1,0,1,0,1,1,0,0,1,0,1,1,1,1,1,1,1,1,0,1,0,0,0,1,0,0,0,0,1,1,0,0,1,1,1,0,0,1,0,1,1,1,1,1,1,0,0,1,1,1,1,1,1,1,1,1,0,1,1,1,0,1,0,0,1,1,1,1,0,0,0,0,1,1,0,1,1,1,0,0,1,1,1,0,0,0,1,1,1]",1,,,,,,stimuli/grey_butterfly.png,stimuli/white_butterfly.png,2,stimuli/red_flower.png,stimuli/yellow_flower.png,stimuli/blue_flower.png,stimuli/green_flower.png,left,stimuli/objects/butterfly4.jpg,1,5,stimuli/white_butterfly.png,1,5,2020-12-18_16h20.43.465,premce3DEU_ses-02_part-01_label-phase1,2020.1.2,MacIntel,60,,,,,left,1,0.908,0,37,37,37,1,,,,,,,,
,,,,,1,"[0,1,1,0,0,0,1,1,1,1,0,1,1,1,0,1,0,0,0,0,1,1,0,1,0,0,0,1,0,1,1,1,1,0,1,1,1,1,1,1,1,1,1,1,1,1,1,1,1,1,1,0,0,0,1,0,0,1,1,1,1,1,1,1,0,0,1,1,0,1,0,1,1,0,0,1,0,1,1,1,1,1,1,1,1,0,1,0,0,0,1,0,0,0,0,1,1,0,0,1,1,1,0,0,1,0,1,1,1,1,1,1,0,0,1,1,1,1,1,1,1,1,1,0,1,1,1,0,1,0,0,1,1,1,1,0,0,0,0,1,1,0,1,1,1,0,0,1,1,1,0,0,0,1,1,1,1]",1,,,,,,stimuli/white_butterfly.png,stimuli/grey_butterfly.png,1,stimuli/blue_flower.png,stimuli/green_flower.png,stimuli/red_flower.png,stimuli/yellow_flower.png,up,stimuli/objects/cymbal.jpg,0,5,stimuli/white_butterfly.png,1,5,2020-12-18_16h20.43.465,premce3DEU_ses-02_part-01_label-phase1,2020.1.2,MacIntel,60,,,,,up,1,0.943,0,38,38,38,1,,,,,,,,
,,,,,1,"[0,1,1,0,0,0,1,1,1,1,0,1,1,1,0,1,0,0,0,0,1,1,0,1,0,0,0,1,0,1,1,1,1,0,1,1,1,1,1,1,1,1,1,1,1,1,1,1,1,1,1,0,0,0,1,0,0,1,1,1,1,1,1,1,0,0,1,1,0,1,0,1,1,0,0,1,0,1,1,1,1,1,1,1,1,0,1,0,0,0,1,0,0,0,0,1,1,0,0,1,1,1,0,0,1,0,1,1,1,1,1,1,0,0,1,1,1,1,1,1,1,1,1,0,1,1,1,0,1,0,0,1,1,1,1,0,0,0,0,1,1,0,1,1,1,0,0,1,1,1,0,0,0,1,1,1,1]",1,,,,,,stimuli/grey_butterfly.png,stimuli/white_butterfly.png,2,stimuli/blue_flower.png,stimuli/yellow_flower.png,stimuli/green_flower.png,stimuli/red_flower.png,right,stimuli/objects/recyclingbin.jpg,1,5,stimuli/white_butterfly.png,1,5,2020-12-18_16h20.43.465,premce3DEU_ses-02_part-01_label-phase1,2020.1.2,MacIntel,60,,,,,right,1,1.549,0,39,39,39,1,,,,,,,,
,,,,,1,"[0,1,1,0,0,0,1,1,1,1,0,1,1,1,0,1,0,0,0,0,1,1,0,1,0,0,0,1,0,1,1,1,1,0,1,1,1,1,1,1,1,1,1,1,1,1,1,1,1,1,1,0,0,0,1,0,0,1,1,1,1,1,1,1,0,0,1,1,0,1,0,1,1,0,0,1,0,1,1,1,1,1,1,1,1,0,1,0,0,0,1,0,0,0,0,1,1,0,0,1,1,1,0,0,1,0,1,1,1,1,1,1,0,0,1,1,1,1,1,1,1,1,1,0,1,1,1,0,1,0,0,1,1,1,1,0,0,0,0,1,1,0,1,1,1,0,0,1,1,1,0,0,0,1,1,1,1,1]",1,,,,,,stimuli/white_butterfly.png,stimuli/grey_butterfly.png,2,stimuli/green_flower.png,stimuli/yellow_flower.png,stimuli/red_flower.png,stimuli/blue_flower.png,left,stimuli/objects/bookshelf.jpg,1,5,stimuli/grey_butterfly.png,1,5,2020-12-18_16h20.43.465,premce3DEU_ses-02_part-01_label-phase1,2020.1.2,MacIntel,60,,,,,left,1,0.854,0,40,40,40,1,,,,,,,,
,,,,,0,"[0,1,1,0,0,0,1,1,1,1,0,1,1,1,0,1,0,0,0,0,1,1,0,1,0,0,0,1,0,1,1,1,1,0,1,1,1,1,1,1,1,1,1,1,1,1,1,1,1,1,1,0,0,0,1,0,0,1,1,1,1,1,1,1,0,0,1,1,0,1,0,1,1,0,0,1,0,1,1,1,1,1,1,1,1,0,1,0,0,0,1,0,0,0,0,1,1,0,0,1,1,1,0,0,1,0,1,1,1,1,1,1,0,0,1,1,1,1,1,1,1,1,1,0,1,1,1,0,1,0,0,1,1,1,1,0,0,0,0,1,1,0,1,1,1,0,0,1,1,1,0,0,0,1,1,1,1,1,1]",1,,,,,,stimuli/grey_butterfly.png,stimuli/white_butterfly.png,2,stimuli/yellow_flower.png,stimuli/red_flower.png,stimuli/green_flower.png,stimuli/blue_flower.png,right,stimuli/objects/tie02.jpg,0,5,stimuli/white_butterfly.png,1,5,2020-12-18_16h20.43.465,premce3DEU_ses-02_part-01_label-phase1,2020.1.2,MacIntel,60,,,,,up,0,0.707,0,41,41,41,1,,,,,,,,
,,,,,,,,,,,,,,,,,,,,,,,,,,5,2020-12-18_16h20.43.465,premce3DEU_ses-02_part-01_label-phase1,2020.1.2,MacIntel,60,,,,,,,,,,,,,,,,,,,space,7.712
