instructions_loop.thisRepN,instructions_loop.thisTrialN,instructions_loop.thisN,instructions_loop.thisIndex,instructions_loop.ran,text1,text2,text3,participant,date,expName,psychopyVersion,OS,frameRate,recog_resp.keys,recog_resp.rt,conf_resp.keys,conf_resp.rt,recog_loop.thisRepN,recog_loop.thisTrialN,recog_loop.thisN,recog_loop.thisIndex,recog_loop.ran,images,corr_ans,type,order,key_resp_break.keys,key_resp_break.rt,list_loop.thisRepN,list_loop.thisTrialN,list_loop.thisN,list_loop.thisIndex,list_loop.ran,recog_list
0,0,0,0,1,Willkommen zum letzten Teil des Experiments!,,Mit der LEERTASTE kannst du mit der Aufgabe fortfahren.,5,2020-12-18_16h43.28.740,premce3DEU_ses-02_part-02_label-phase2,2020.1.2,MacIntel,60,,,,,,,,,,,,,,,,,,,,,
0,1,1,1,1,,"Jetzt werden wir dir einige Bilder zeigen.

Bitte gib zu jedem Bild an, ob du du es im Verlauf des Experiments gesehen hast.

Drücke die LINKE PFEILTASTE für JA
Drücke die RECHTE PFEILTASTE für NEIN

",Mit der LEERTASTE kannst du mit der Aufgabe fortfahren.,5,2020-12-18_16h43.28.740,premce3DEU_ses-02_part-02_label-phase2,2020.1.2,MacIntel,60,,,,,,,,,,,,,,,,,,,,,
0,2,2,2,1,,"Anschließend bitten wir dich anzugeben wie sicher du dir bei deiner Wahl bist.

Bitte nutze die Zifferntasten von 1 bis 4 am oberen Ende deiner Tastatur um anzugeben, wie sicher du dir bei deiner Antwort bist.

Die Zahlen stehen für

1 = Sehr unsicher
2 = Unsicher
3 = Sicher
4 = Sehr sicher",Mit der LEERTASTE kannst du mit der Aufgabe fortfahren.,5,2020-12-18_16h43.28.740,premce3DEU_ses-02_part-02_label-phase2,2020.1.2,MacIntel,60,,,,,,,,,,,,,,,,,,,,,
,,,,,,,,5,2020-12-18_16h43.28.740,premce3DEU_ses-02_part-02_label-phase2,2020.1.2,MacIntel,60,right,1.091,3,5.256,0,0,0,134,1,stimuli/objects/nunchuk.jpg,right,new,135,,,,,,,,
,,,,,,,,5,2020-12-18_16h43.28.740,premce3DEU_ses-02_part-02_label-phase2,2020.1.2,MacIntel,60,right,3.47,3,2.901,0,1,1,107,1,stimuli/objects/musicstand.jpg,left,old,108,,,,,,,,
,,,,,,,,5,2020-12-18_16h43.28.740,premce3DEU_ses-02_part-02_label-phase2,2020.1.2,MacIntel,60,right,3.844,2,2.777,0,2,2,148,1,stimuli/objects/peacock.jpg,right,new,149,,,,,,,,
,,,,,,,,5,2020-12-18_16h43.28.740,premce3DEU_ses-02_part-02_label-phase2,2020.1.2,MacIntel,60,right,1.804,3,2.329,0,3,3,155,1,stimuli/objects/calendar.jpg,right,new,156,,,,,,,,
,,,,,,,,5,2020-12-18_16h43.28.740,premce3DEU_ses-02_part-02_label-phase2,2020.1.2,MacIntel,60,left,3.585,2,2.897,0,4,4,111,1,stimuli/objects/platypus.jpg,right,new,112,,,,,,,,
,,,,,,,,5,2020-12-18_16h43.28.740,premce3DEU_ses-02_part-02_label-phase2,2020.1.2,MacIntel,60,left,1.581,3,1.868,0,5,5,157,1,stimuli/objects/cookingpot.jpg,left,old,158,,,,,,,,
,,,,,,,,5,2020-12-18_16h43.28.740,premce3DEU_ses-02_part-02_label-phase2,2020.1.2,MacIntel,60,left,1.773,3,1.306,0,6,6,69,1,stimuli/objects/granolabar01.jpg,left,old,70,,,,,,,,
,,,,,,,,5,2020-12-18_16h43.28.740,premce3DEU_ses-02_part-02_label-phase2,2020.1.2,MacIntel,60,right,2.306,3,1.463,0,7,7,91,1,stimuli/objects/eyepatch.jpg,left,old,92,,,,,,,,
,,,,,,,,5,2020-12-18_16h43.28.740,premce3DEU_ses-02_part-02_label-phase2,2020.1.2,MacIntel,60,right,3.067,2,1.046,0,8,8,37,1,stimuli/objects/golfball.jpg,left,old,38,,,,,,,,
,,,,,,,,5,2020-12-18_16h43.28.740,premce3DEU_ses-02_part-02_label-phase2,2020.1.2,MacIntel,60,left,3.866,3,1.237,0,9,9,149,1,stimuli/objects/dolly01.jpg,right,new,150,,,,,,,,
,,,,,,,,5,2020-12-18_16h43.28.740,premce3DEU_ses-02_part-02_label-phase2,2020.1.2,MacIntel,60,right,2.32,2,1.347,0,10,10,26,1,stimuli/objects/sledgehammer.jpg,right,new,27,,,,,,,,
,,,,,,,,5,2020-12-18_16h43.28.740,premce3DEU_ses-02_part-02_label-phase2,2020.1.2,MacIntel,60,right,2.301,3,1.108,0,11,11,60,1,stimuli/objects/banjo.jpg,right,new,61,,,,,,,,
,,,,,,,,5,2020-12-18_16h43.28.740,premce3DEU_ses-02_part-02_label-phase2,2020.1.2,MacIntel,60,right,2.937,3,1.797,0,12,12,85,1,stimuli/objects/bridge.jpg,right,new,86,,,,,,,,
,,,,,,,,5,2020-12-18_16h43.28.740,premce3DEU_ses-02_part-02_label-phase2,2020.1.2,MacIntel,60,right,1.111,3,0.731,0,13,13,23,1,stimuli/objects/lollipop04.jpg,right,new,24,,,,,,,,
,,,,,,,,5,2020-12-18_16h43.28.740,premce3DEU_ses-02_part-02_label-phase2,2020.1.2,MacIntel,60,right,3.702,4,1.678,0,14,14,52,1,stimuli/objects/turkey.jpg,right,new,53,,,,,,,,
,,,,,,,,5,2020-12-18_16h43.28.740,premce3DEU_ses-02_part-02_label-phase2,2020.1.2,MacIntel,60,right,1.544,4,2.278,0,15,15,152,1,stimuli/objects/urinal.jpg,left,old,153,,,,,,,,
,,,,,,,,5,2020-12-18_16h43.28.740,premce3DEU_ses-02_part-02_label-phase2,2020.1.2,MacIntel,60,left,2.111,3,1.073,0,16,16,98,1,stimuli/objects/handbrush02.jpg,left,old,99,,,,,,,,
,,,,,,,,5,2020-12-18_16h43.28.740,premce3DEU_ses-02_part-02_label-phase2,2020.1.2,MacIntel,60,right,3.086,3,2.202,0,17,17,62,1,stimuli/objects/trophy01.jpg,left,old,63,,,,,,,,
,,,,,,,,5,2020-12-18_16h43.28.740,premce3DEU_ses-02_part-02_label-phase2,2020.1.2,MacIntel,60,right,4.557,3,0.319,0,18,18,51,1,stimuli/objects/road02.jpg,right,new,52,,,,,,,,
,,,,,,,,5,2020-12-18_16h43.28.740,premce3DEU_ses-02_part-02_label-phase2,2020.1.2,MacIntel,60,right,1.624,3,0.553,0,19,19,2,1,stimuli/objects/table01.jpg,left,old,3,,,,,,,,
,,,,,,,,5,2020-12-18_16h43.28.740,premce3DEU_ses-02_part-02_label-phase2,2020.1.2,MacIntel,60,right,2.08,4,0.683,0,20,20,33,1,stimuli/objects/caribou02.jpg,right,new,34,,,,,,,,
,,,,,,,,5,2020-12-18_16h43.28.740,premce3DEU_ses-02_part-02_label-phase2,2020.1.2,MacIntel,60,right,4.139,2,1.376,0,21,21,80,1,stimuli/objects/tree.jpg,right,new,81,,,,,,,,
,,,,,,,,5,2020-12-18_16h43.28.740,premce3DEU_ses-02_part-02_label-phase2,2020.1.2,MacIntel,60,right,2.052,4,0.806,0,22,22,76,1,stimuli/objects/morningstar.jpg,right,new,77,,,,,,,,
,,,,,,,,5,2020-12-18_16h43.28.740,premce3DEU_ses-02_part-02_label-phase2,2020.1.2,MacIntel,60,left,3.007,3,1.038,0,23,23,70,1,stimuli/objects/balcony02.jpg,left,old,71,,,,,,,,
,,,,,,,,5,2020-12-18_16h43.28.740,premce3DEU_ses-02_part-02_label-phase2,2020.1.2,MacIntel,60,right,1.383,3,1.3,0,24,24,151,1,stimuli/objects/contactlens.jpg,left,old,152,,,,,,,,
,,,,,,,,5,2020-12-18_16h43.28.740,premce3DEU_ses-02_part-02_label-phase2,2020.1.2,MacIntel,60,left,3.343,3,0.374,0,25,25,5,1,stimuli/objects/horse.jpg,left,old,6,,,,,,,,
,,,,,,,,5,2020-12-18_16h43.28.740,premce3DEU_ses-02_part-02_label-phase2,2020.1.2,MacIntel,60,right,2.324,2,1.491,0,26,26,1,1,stimuli/objects/pooltable.jpg,right,new,2,,,,,,,,
,,,,,,,,5,2020-12-18_16h43.28.740,premce3DEU_ses-02_part-02_label-phase2,2020.1.2,MacIntel,60,left,2.358,4,0.634,0,27,27,103,1,stimuli/objects/salmon.jpg,left,old,104,,,,,,,,
,,,,,,,,5,2020-12-18_16h43.28.740,premce3DEU_ses-02_part-02_label-phase2,2020.1.2,MacIntel,60,left,2.339,4,1.186,0,28,28,146,1,stimuli/objects/ant.jpg,right,new,147,,,,,,,,
,,,,,,,,5,2020-12-18_16h43.28.740,premce3DEU_ses-02_part-02_label-phase2,2020.1.2,MacIntel,60,right,2.521,2,1.252,0,29,29,118,1,stimuli/objects/microwave.jpg,left,old,119,,,,,,,,
,,,,,,,,5,2020-12-18_16h43.28.740,premce3DEU_ses-02_part-02_label-phase2,2020.1.2,MacIntel,60,right,4.508,3,0.445,0,30,30,16,1,stimuli/objects/cactus.jpg,left,old,17,,,,,,,,
,,,,,,,,5,2020-12-18_16h43.28.740,premce3DEU_ses-02_part-02_label-phase2,2020.1.2,MacIntel,60,left,2.793,3,0.412,0,31,31,6,1,stimuli/objects/pumpkin.jpg,left,old,7,,,,,,,,
,,,,,,,,5,2020-12-18_16h43.28.740,premce3DEU_ses-02_part-02_label-phase2,2020.1.2,MacIntel,60,right,3.08,3,0.383,0,32,32,141,1,stimuli/objects/stroller.jpg,right,new,142,,,,,,,,
,,,,,,,,5,2020-12-18_16h43.28.740,premce3DEU_ses-02_part-02_label-phase2,2020.1.2,MacIntel,60,right,3.583,3,0.62,0,33,33,110,1,stimuli/objects/foosballtable.jpg,right,new,111,,,,,,,,
,,,,,,,,5,2020-12-18_16h43.28.740,premce3DEU_ses-02_part-02_label-phase2,2020.1.2,MacIntel,60,left,3.216,4,0.439,0,34,34,130,1,stimuli/objects/tulip02.jpg,left,old,131,,,,,,,,
,,,,,,,,5,2020-12-18_16h43.28.740,premce3DEU_ses-02_part-02_label-phase2,2020.1.2,MacIntel,60,right,1.243,4,0.422,0,35,35,113,1,stimuli/objects/shoppingcart.jpg,right,new,114,,,,,,,,
,,,,,,,,5,2020-12-18_16h43.28.740,premce3DEU_ses-02_part-02_label-phase2,2020.1.2,MacIntel,60,right,1.479,4,0.297,0,36,36,139,1,stimuli/objects/safe.jpg,right,new,140,,,,,,,,
,,,,,,,,5,2020-12-18_16h43.28.740,premce3DEU_ses-02_part-02_label-phase2,2020.1.2,MacIntel,60,right,1.754,4,0.09,0,37,37,89,1,stimuli/objects/bowlingball.jpg,right,new,90,,,,,,,,
,,,,,,,,5,2020-12-18_16h43.28.740,premce3DEU_ses-02_part-02_label-phase2,2020.1.2,MacIntel,60,left,1.224,4,1.238,0,38,38,53,1,stimuli/objects/honeybee.jpg,right,new,54,,,,,,,,
,,,,,,,,5,2020-12-18_16h43.28.740,premce3DEU_ses-02_part-02_label-phase2,2020.1.2,MacIntel,60,right,1.632,4,0.78,0,39,39,27,1,stimuli/objects/coffeemaker.jpg,left,old,28,,,,,,,,
,,,,,,,,5,2020-12-18_16h43.28.740,premce3DEU_ses-02_part-02_label-phase2,2020.1.2,MacIntel,60,left,5.871,2,2.106,0,40,40,137,1,stimuli/objects/brownsugar.jpg,left,old,138,,,,,,,,
,,,,,,,,5,2020-12-18_16h43.28.740,premce3DEU_ses-02_part-02_label-phase2,2020.1.2,MacIntel,60,right,6.414,2,1.279,0,41,41,28,1,stimuli/objects/seaturtle.jpg,left,old,29,,,,,,,,
,,,,,,,,5,2020-12-18_16h43.28.740,premce3DEU_ses-02_part-02_label-phase2,2020.1.2,MacIntel,60,right,2.534,2,1.221,0,42,42,158,1,stimuli/objects/watercooler.jpg,right,new,159,,,,,,,,
,,,,,,,,5,2020-12-18_16h43.28.740,premce3DEU_ses-02_part-02_label-phase2,2020.1.2,MacIntel,60,right,4.81,2,0.411,0,43,43,88,1,stimuli/objects/jackrabbit.jpg,left,old,89,,,,,,,,
,,,,,,,,5,2020-12-18_16h43.28.740,premce3DEU_ses-02_part-02_label-phase2,2020.1.2,MacIntel,60,right,3.181,2,0.786,0,44,44,115,1,stimuli/objects/lantern03.jpg,left,old,116,,,,,,,,
,,,,,,,,5,2020-12-18_16h43.28.740,premce3DEU_ses-02_part-02_label-phase2,2020.1.2,MacIntel,60,left,7.986,3,0.521,0,45,45,119,1,stimuli/objects/kite.jpg,right,new,120,,,,,,,,
,,,,,,,,5,2020-12-18_16h43.28.740,premce3DEU_ses-02_part-02_label-phase2,2020.1.2,MacIntel,60,right,4.01,2,3.594,0,46,46,48,1,stimuli/objects/bowlingpin.jpg,left,old,49,,,,,,,,
,,,,,,,,5,2020-12-18_16h43.28.740,premce3DEU_ses-02_part-02_label-phase2,2020.1.2,MacIntel,60,right,2.227,2,1.279,0,47,47,150,1,stimuli/objects/eiffeltower.jpg,right,new,151,,,,,,,,
,,,,,,,,5,2020-12-18_16h43.28.740,premce3DEU_ses-02_part-02_label-phase2,2020.1.2,MacIntel,60,right,1.399,2,1.431,0,48,48,9,1,stimuli/objects/rose.jpg,right,new,10,,,,,,,,
,,,,,,,,5,2020-12-18_16h43.28.740,premce3DEU_ses-02_part-02_label-phase2,2020.1.2,MacIntel,60,right,2.099,3,0.293,0,49,49,124,1,stimuli/objects/handheldtelescope.jpg,left,old,125,,,,,,,,
,,,,,,,,5,2020-12-18_16h43.28.740,premce3DEU_ses-02_part-02_label-phase2,2020.1.2,MacIntel,60,right,2.539,3,0.024,0,50,50,18,1,stimuli/objects/pingpongtable.jpg,right,new,19,,,,,,,,
,,,,,,,,5,2020-12-18_16h43.28.740,premce3DEU_ses-02_part-02_label-phase2,2020.1.2,MacIntel,60,right,1.47,3,0.263,0,51,51,143,1,stimuli/objects/faucet.jpg,right,new,144,,,,,,,,
,,,,,,,,5,2020-12-18_16h43.28.740,premce3DEU_ses-02_part-02_label-phase2,2020.1.2,MacIntel,60,right,0.933,3,0.099,0,52,52,31,1,stimuli/objects/file.jpg,left,old,32,,,,,,,,
,,,,,,,,5,2020-12-18_16h43.28.740,premce3DEU_ses-02_part-02_label-phase2,2020.1.2,MacIntel,60,right,1.43,3,1.005,0,53,53,11,1,stimuli/objects/cannon.jpg,left,old,12,,,,,,,,
,,,,,,,,5,2020-12-18_16h43.28.740,premce3DEU_ses-02_part-02_label-phase2,2020.1.2,MacIntel,60,right,2.293,3,0.61,0,54,54,44,1,stimuli/objects/artichoke01b.jpg,left,old,45,,,,,,,,
,,,,,,,,5,2020-12-18_16h43.28.740,premce3DEU_ses-02_part-02_label-phase2,2020.1.2,MacIntel,60,left,3.617,3,1.543,0,55,55,154,1,stimuli/objects/curtain.jpg,right,new,155,,,,,,,,
,,,,,,,,5,2020-12-18_16h43.28.740,premce3DEU_ses-02_part-02_label-phase2,2020.1.2,MacIntel,60,right,1.616,3,0.548,0,56,56,120,1,stimuli/objects/panda.jpg,left,old,121,,,,,,,,
,,,,,,,,5,2020-12-18_16h43.28.740,premce3DEU_ses-02_part-02_label-phase2,2020.1.2,MacIntel,60,right,1.646,3,0.487,0,57,57,114,1,stimuli/objects/star.jpg,left,old,115,,,,,,,,
,,,,,,,,5,2020-12-18_16h43.28.740,premce3DEU_ses-02_part-02_label-phase2,2020.1.2,MacIntel,60,right,1.025,3,0.025,0,58,58,59,1,stimuli/objects/birdhouse.jpg,right,new,60,,,,,,,,
,,,,,,,,5,2020-12-18_16h43.28.740,premce3DEU_ses-02_part-02_label-phase2,2020.1.2,MacIntel,60,right,1.015,3,0.404,0,59,59,55,1,stimuli/objects/drumstick.jpg,right,new,56,,,,,,,,
,,,,,,,,5,2020-12-18_16h43.28.740,premce3DEU_ses-02_part-02_label-phase2,2020.1.2,MacIntel,60,right,0.983,3,0.256,0,60,60,30,1,stimuli/objects/fortunecookie.jpg,right,new,31,,,,,,,,
,,,,,,,,5,2020-12-18_16h43.28.740,premce3DEU_ses-02_part-02_label-phase2,2020.1.2,MacIntel,60,right,0.596,3,0.47,0,61,61,123,1,stimuli/objects/lintroller.jpg,left,old,124,,,,,,,,
,,,,,,,,5,2020-12-18_16h43.28.740,premce3DEU_ses-02_part-02_label-phase2,2020.1.2,MacIntel,60,right,0.518,3,0.349,0,62,62,10,1,stimuli/objects/tablesaw.jpg,right,new,11,,,,,,,,
,,,,,,,,5,2020-12-18_16h43.28.740,premce3DEU_ses-02_part-02_label-phase2,2020.1.2,MacIntel,60,right,1.864,3,0.134,0,63,63,138,1,stimuli/objects/cow.jpg,right,new,139,,,,,,,,
,,,,,,,,5,2020-12-18_16h43.28.740,premce3DEU_ses-02_part-02_label-phase2,2020.1.2,MacIntel,60,left,1.869,4,1.32,0,64,64,78,1,stimuli/objects/monarchbutterfly.jpg,left,old,79,,,,,,,,
,,,,,,,,5,2020-12-18_16h43.28.740,premce3DEU_ses-02_part-02_label-phase2,2020.1.2,MacIntel,60,right,1.442,3,2.392,0,65,65,99,1,stimuli/objects/waterfountain02.jpg,left,old,100,,,,,,,,
,,,,,,,,5,2020-12-18_16h43.28.740,premce3DEU_ses-02_part-02_label-phase2,2020.1.2,MacIntel,60,right,0.931,3,0.618,0,66,66,63,1,stimuli/objects/toasteroven.jpg,right,new,64,,,,,,,,
,,,,,,,,5,2020-12-18_16h43.28.740,premce3DEU_ses-02_part-02_label-phase2,2020.1.2,MacIntel,60,right,1.147,3,0.334,0,67,67,129,1,stimuli/objects/lawnmower.jpg,right,new,130,,,,,,,,
,,,,,,,,5,2020-12-18_16h43.28.740,premce3DEU_ses-02_part-02_label-phase2,2020.1.2,MacIntel,60,right,0.628,3,0.322,0,68,68,3,1,stimuli/objects/vacuumcleaner01.jpg,left,old,4,,,,,,,,
,,,,,,,,5,2020-12-18_16h43.28.740,premce3DEU_ses-02_part-02_label-phase2,2020.1.2,MacIntel,60,right,0.631,3,0.373,0,69,69,96,1,stimuli/objects/awning.jpg,right,new,97,,,,,,,,
,,,,,,,,5,2020-12-18_16h43.28.740,premce3DEU_ses-02_part-02_label-phase2,2020.1.2,MacIntel,60,right,0.981,3,0.308,0,70,70,125,1,stimuli/objects/freezer02.jpg,right,new,126,,,,,,,,
,,,,,,,,5,2020-12-18_16h43.28.740,premce3DEU_ses-02_part-02_label-phase2,2020.1.2,MacIntel,60,right,0.617,3,0.329,0,71,71,35,1,stimuli/objects/skihelmet01.jpg,left,old,36,,,,,,,,
,,,,,,,,5,2020-12-18_16h43.28.740,premce3DEU_ses-02_part-02_label-phase2,2020.1.2,MacIntel,60,right,0.584,3,0.13,0,72,72,50,1,stimuli/objects/lionstatue.jpg,left,old,51,,,,,,,,
,,,,,,,,5,2020-12-18_16h43.28.740,premce3DEU_ses-02_part-02_label-phase2,2020.1.2,MacIntel,60,right,0.59,3,0.592,0,73,73,42,1,stimuli/objects/snowshoe.jpg,right,new,43,,,,,,,,
,,,,,,,,5,2020-12-18_16h43.28.740,premce3DEU_ses-02_part-02_label-phase2,2020.1.2,MacIntel,60,right,3.28,2,0.855,0,74,74,100,1,stimuli/objects/macaroni01.jpg,right,new,101,,,,,,,,
,,,,,,,,5,2020-12-18_16h43.28.740,premce3DEU_ses-02_part-02_label-phase2,2020.1.2,MacIntel,60,right,1.344,3,0.397,0,75,75,20,1,stimuli/objects/accordion01.jpg,right,new,21,,,,,,,,
,,,,,,,,5,2020-12-18_16h43.28.740,premce3DEU_ses-02_part-02_label-phase2,2020.1.2,MacIntel,60,right,1.304,3,0.523,0,76,76,92,1,stimuli/objects/armchair02.jpg,right,new,93,,,,,,,,
,,,,,,,,5,2020-12-18_16h43.28.740,premce3DEU_ses-02_part-02_label-phase2,2020.1.2,MacIntel,60,right,1.577,3,0.436,0,77,77,58,1,stimuli/objects/beaver.jpg,left,old,59,,,,,,,,
,,,,,,,,5,2020-12-18_16h43.28.740,premce3DEU_ses-02_part-02_label-phase2,2020.1.2,MacIntel,60,right,4.77,4,0.801,0,78,78,109,1,stimuli/objects/webcam.jpg,right,new,110,,,,,,,,
,,,,,,,,5,2020-12-18_16h43.28.740,premce3DEU_ses-02_part-02_label-phase2,2020.1.2,MacIntel,60,right,0.564,4,1.437,0,79,79,13,1,stimuli/objects/tower.jpg,right,new,14,,,,,,,,
,,,,,,,,5,2020-12-18_16h43.28.740,premce3DEU_ses-02_part-02_label-phase2,2020.1.2,MacIntel,60,right,0.788,4,0.583,0,80,80,135,1,stimuli/objects/basketball01.jpg,left,old,136,,,,,,,,
,,,,,,,,5,2020-12-18_16h43.28.740,premce3DEU_ses-02_part-02_label-phase2,2020.1.2,MacIntel,60,right,1.029,4,1.839,0,81,81,127,1,stimuli/objects/sausage.jpg,left,old,128,,,,,,,,
,,,,,,,,5,2020-12-18_16h43.28.740,premce3DEU_ses-02_part-02_label-phase2,2020.1.2,MacIntel,60,right,0.906,3,0.025,0,82,82,133,1,stimuli/objects/sink.jpg,right,new,134,,,,,,,,
,,,,,,,,5,2020-12-18_16h43.28.740,premce3DEU_ses-02_part-02_label-phase2,2020.1.2,MacIntel,60,right,1.429,3,0.029,0,83,83,66,1,stimuli/objects/shipinabottle.jpg,right,new,67,,,,,,,,
,,,,,,,,5,2020-12-18_16h43.28.740,premce3DEU_ses-02_part-02_label-phase2,2020.1.2,MacIntel,60,right,1.069,3,1.013,0,84,84,126,1,stimuli/objects/bat.jpg,right,new,127,,,,,,,,
,,,,,,,,5,2020-12-18_16h43.28.740,premce3DEU_ses-02_part-02_label-phase2,2020.1.2,MacIntel,60,right,2.248,3,0.551,0,85,85,34,1,stimuli/objects/aquarium.jpg,left,old,35,,,,,,,,
,,,,,,,,5,2020-12-18_16h43.28.740,premce3DEU_ses-02_part-02_label-phase2,2020.1.2,MacIntel,60,right,1.278,3,0.576,0,86,86,56,1,stimuli/objects/jeans01.jpg,left,old,57,,,,,,,,
,,,,,,,,5,2020-12-18_16h43.28.740,premce3DEU_ses-02_part-02_label-phase2,2020.1.2,MacIntel,60,right,0.698,3,0.456,0,87,87,102,1,stimuli/objects/forklift.jpg,left,old,103,,,,,,,,
,,,,,,,,5,2020-12-18_16h43.28.740,premce3DEU_ses-02_part-02_label-phase2,2020.1.2,MacIntel,60,right,0.996,3,0.468,0,88,88,68,1,stimuli/objects/cuttlefish.jpg,left,old,69,,,,,,,,
,,,,,,,,5,2020-12-18_16h43.28.740,premce3DEU_ses-02_part-02_label-phase2,2020.1.2,MacIntel,60,right,1.368,4,0.002,0,89,89,112,1,stimuli/objects/tank.jpg,right,new,113,,,,,,,,
,,,,,,,,5,2020-12-18_16h43.28.740,premce3DEU_ses-02_part-02_label-phase2,2020.1.2,MacIntel,60,right,1.717,2,1.169,0,90,90,12,1,stimuli/objects/pigeon.jpg,right,new,13,,,,,,,,
,,,,,,,,5,2020-12-18_16h43.28.740,premce3DEU_ses-02_part-02_label-phase2,2020.1.2,MacIntel,60,right,1.129,2,1.537,0,91,91,73,1,stimuli/objects/guitarcase.jpg,right,new,74,,,,,,,,
,,,,,,,,5,2020-12-18_16h43.28.740,premce3DEU_ses-02_part-02_label-phase2,2020.1.2,MacIntel,60,right,0.962,3,0.628,0,92,92,77,1,stimuli/objects/fishskeleton.jpg,left,old,78,,,,,,,,
,,,,,,,,5,2020-12-18_16h43.28.740,premce3DEU_ses-02_part-02_label-phase2,2020.1.2,MacIntel,60,right,1.067,2,1.366,0,93,93,104,1,stimuli/objects/porcupine.jpg,left,old,105,,,,,,,,
,,,,,,,,5,2020-12-18_16h43.28.740,premce3DEU_ses-02_part-02_label-phase2,2020.1.2,MacIntel,60,right,0.736,3,1.262,0,94,94,38,1,stimuli/objects/pig.jpg,right,new,39,,,,,,,,
,,,,,,,,5,2020-12-18_16h43.28.740,premce3DEU_ses-02_part-02_label-phase2,2020.1.2,MacIntel,60,right,0.832,3,0.813,0,95,95,121,1,stimuli/objects/riverotter.jpg,right,new,122,,,,,,,,
,,,,,,,,5,2020-12-18_16h43.28.740,premce3DEU_ses-02_part-02_label-phase2,2020.1.2,MacIntel,60,right,0.647,3,0.641,0,96,96,105,1,stimuli/objects/gps.jpg,left,old,106,,,,,,,,
,,,,,,,,5,2020-12-18_16h43.28.740,premce3DEU_ses-02_part-02_label-phase2,2020.1.2,MacIntel,60,right,1.099,2,0.476,0,97,97,132,1,stimuli/objects/shower.jpg,left,old,133,,,,,,,,
,,,,,,,,5,2020-12-18_16h43.28.740,premce3DEU_ses-02_part-02_label-phase2,2020.1.2,MacIntel,60,right,0.626,3,0.597,0,98,98,54,1,stimuli/objects/toynutcracker.jpg,right,new,55,,,,,,,,
,,,,,,,,5,2020-12-18_16h43.28.740,premce3DEU_ses-02_part-02_label-phase2,2020.1.2,MacIntel,60,right,0.705,2,0.779,0,99,99,24,1,stimuli/objects/icecube02.jpg,right,new,25,,,,,,,,
,,,,,,,,5,2020-12-18_16h43.28.740,premce3DEU_ses-02_part-02_label-phase2,2020.1.2,MacIntel,60,right,2.647,2,0.725,0,100,100,45,1,stimuli/objects/fridge.jpg,left,old,46,,,,,,,,
,,,,,,,,5,2020-12-18_16h43.28.740,premce3DEU_ses-02_part-02_label-phase2,2020.1.2,MacIntel,60,left,2.301,2,1.62,0,101,101,74,1,stimuli/objects/windturbine.jpg,left,old,75,,,,,,,,
,,,,,,,,5,2020-12-18_16h43.28.740,premce3DEU_ses-02_part-02_label-phase2,2020.1.2,MacIntel,60,right,1.919,2,0.896,0,102,102,19,1,stimuli/objects/crosscountryski.jpg,right,new,20,,,,,,,,
,,,,,,,,5,2020-12-18_16h43.28.740,premce3DEU_ses-02_part-02_label-phase2,2020.1.2,MacIntel,60,right,1.503,4,1.476,0,103,103,106,1,stimuli/objects/helicopter.jpg,right,new,107,,,,,,,,
,,,,,,,,5,2020-12-18_16h43.28.740,premce3DEU_ses-02_part-02_label-phase2,2020.1.2,MacIntel,60,left,3.806,3,1.745,0,104,104,131,1,stimuli/objects/missile.jpg,right,new,132,,,,,,,,
,,,,,,,,5,2020-12-18_16h43.28.740,premce3DEU_ses-02_part-02_label-phase2,2020.1.2,MacIntel,60,right,0.666,2,1.341,0,105,105,86,1,stimuli/objects/chimney.jpg,right,new,87,,,,,,,,
,,,,,,,,5,2020-12-18_16h43.28.740,premce3DEU_ses-02_part-02_label-phase2,2020.1.2,MacIntel,60,right,2.821,4,1.557,0,106,106,93,1,stimuli/objects/discoball.jpg,right,new,94,,,,,,,,
,,,,,,,,5,2020-12-18_16h43.28.740,premce3DEU_ses-02_part-02_label-phase2,2020.1.2,MacIntel,60,right,1.361,4,0.45,0,107,107,64,1,stimuli/objects/dalmatian.jpg,left,old,65,,,,,,,,
,,,,,,,,5,2020-12-18_16h43.28.740,premce3DEU_ses-02_part-02_label-phase2,2020.1.2,MacIntel,60,right,2.634,4,0.427,0,108,108,43,1,stimuli/objects/ostrich.jpg,right,new,44,,,,,,,,
,,,,,,,,5,2020-12-18_16h43.28.740,premce3DEU_ses-02_part-02_label-phase2,2020.1.2,MacIntel,60,left,1.919,3,0.502,0,109,109,147,1,stimuli/objects/toiletbrush.jpg,right,new,148,,,,,,,,
,,,,,,,,5,2020-12-18_16h43.28.740,premce3DEU_ses-02_part-02_label-phase2,2020.1.2,MacIntel,60,right,0.769,3,2.513,0,110,110,65,1,stimuli/objects/weddingcake.jpg,left,old,66,,,,,,,,
,,,,,,,,5,2020-12-18_16h43.28.740,premce3DEU_ses-02_part-02_label-phase2,2020.1.2,MacIntel,60,right,2.872,2,1.581,0,111,111,156,1,stimuli/objects/skateboard.jpg,left,old,157,,,,,,,,
,,,,,,,,5,2020-12-18_16h43.28.740,premce3DEU_ses-02_part-02_label-phase2,2020.1.2,MacIntel,60,right,2.025,3,1.441,0,112,112,25,1,stimuli/objects/honeycomb.jpg,right,new,26,,,,,,,,
,,,,,,,,5,2020-12-18_16h43.28.740,premce3DEU_ses-02_part-02_label-phase2,2020.1.2,MacIntel,60,right,3.525,4,0.46,0,113,113,72,1,stimuli/objects/totempole.jpg,right,new,73,,,,,,,,
,,,,,,,,5,2020-12-18_16h43.28.740,premce3DEU_ses-02_part-02_label-phase2,2020.1.2,MacIntel,60,left,1.767,3,0.378,0,114,114,136,1,stimuli/objects/wheat.jpg,right,new,137,,,,,,,,
,,,,,,,,5,2020-12-18_16h43.28.740,premce3DEU_ses-02_part-02_label-phase2,2020.1.2,MacIntel,60,left,1.561,3,0.532,0,115,115,153,1,stimuli/objects/coffeemachine.jpg,left,old,154,,,,,,,,
,,,,,,,,5,2020-12-18_16h43.28.740,premce3DEU_ses-02_part-02_label-phase2,2020.1.2,MacIntel,60,left,4.069,4,0.654,0,116,116,128,1,stimuli/objects/makiroll.jpg,right,new,129,,,,,,,,
,,,,,,,,5,2020-12-18_16h43.28.740,premce3DEU_ses-02_part-02_label-phase2,2020.1.2,MacIntel,60,left,1.282,4,0.808,0,117,117,79,1,stimuli/objects/callbell.jpg,left,old,80,,,,,,,,
,,,,,,,,5,2020-12-18_16h43.28.740,premce3DEU_ses-02_part-02_label-phase2,2020.1.2,MacIntel,60,left,1.215,4,0.888,0,118,118,159,1,stimuli/objects/stairs.jpg,right,new,160,,,,,,,,
,,,,,,,,5,2020-12-18_16h43.28.740,premce3DEU_ses-02_part-02_label-phase2,2020.1.2,MacIntel,60,right,2.345,3,0.595,0,119,119,39,1,stimuli/objects/electrictoothbrush01c.jpg,right,new,40,,,,,,,,
,,,,,,,,5,2020-12-18_16h43.28.740,premce3DEU_ses-02_part-02_label-phase2,2020.1.2,MacIntel,60,right,0.994,3,0.355,0,120,120,97,1,stimuli/objects/dreamcatcher.jpg,left,old,98,,,,,,,,
,,,,,,,,5,2020-12-18_16h43.28.740,premce3DEU_ses-02_part-02_label-phase2,2020.1.2,MacIntel,60,right,1.497,3,0.494,0,121,121,144,1,stimuli/objects/trombone.jpg,left,old,145,,,,,,,,
,,,,,,,,5,2020-12-18_16h43.28.740,premce3DEU_ses-02_part-02_label-phase2,2020.1.2,MacIntel,60,right,4.277,3,0.349,0,122,122,14,1,stimuli/objects/canoepaddle02.jpg,left,old,15,,,,,,,,
,,,,,,,,5,2020-12-18_16h43.28.740,premce3DEU_ses-02_part-02_label-phase2,2020.1.2,MacIntel,60,left,3.286,2,0.441,0,123,123,90,1,stimuli/objects/trailer.jpg,right,new,91,,,,,,,,
,,,,,,,,5,2020-12-18_16h43.28.740,premce3DEU_ses-02_part-02_label-phase2,2020.1.2,MacIntel,60,left,2.001,3,0.029,0,124,124,83,1,stimuli/objects/flugglehorn.jpg,right,new,84,,,,,,,,
,,,,,,,,5,2020-12-18_16h43.28.740,premce3DEU_ses-02_part-02_label-phase2,2020.1.2,MacIntel,60,right,3.438,4,1.196,0,125,125,32,1,stimuli/objects/moth.jpg,right,new,33,,,,,,,,
,,,,,,,,5,2020-12-18_16h43.28.740,premce3DEU_ses-02_part-02_label-phase2,2020.1.2,MacIntel,60,right,1.409,4,0.475,0,126,126,36,1,stimuli/objects/christmaslights.jpg,left,old,37,,,,,,,,
,,,,,,,,5,2020-12-18_16h43.28.740,premce3DEU_ses-02_part-02_label-phase2,2020.1.2,MacIntel,60,left,1.394,4,0.479,0,127,127,61,1,stimuli/objects/jokercard.jpg,left,old,62,,,,,,,,
,,,,,,,,5,2020-12-18_16h43.28.740,premce3DEU_ses-02_part-02_label-phase2,2020.1.2,MacIntel,60,left,3.181,4,0.406,0,128,128,71,1,stimuli/objects/bed.jpg,right,new,72,,,,,,,,
,,,,,,,,5,2020-12-18_16h43.28.740,premce3DEU_ses-02_part-02_label-phase2,2020.1.2,MacIntel,60,right,1.139,3,0.365,0,129,129,117,1,stimuli/objects/bull.jpg,right,new,118,,,,,,,,
,,,,,,,,5,2020-12-18_16h43.28.740,premce3DEU_ses-02_part-02_label-phase2,2020.1.2,MacIntel,60,right,1.217,3,0.479,0,130,130,81,1,stimuli/objects/lighthouse.jpg,right,new,82,,,,,,,,
,,,,,,,,5,2020-12-18_16h43.28.740,premce3DEU_ses-02_part-02_label-phase2,2020.1.2,MacIntel,60,left,1.484,4,0.923,0,131,131,40,1,stimuli/objects/cremebrulee.jpg,left,old,41,,,,,,,,
,,,,,,,,5,2020-12-18_16h43.28.740,premce3DEU_ses-02_part-02_label-phase2,2020.1.2,MacIntel,60,left,4.471,3,0.027,0,132,132,101,1,stimuli/objects/apron.jpg,left,old,102,,,,,,,,
,,,,,,,,5,2020-12-18_16h43.28.740,premce3DEU_ses-02_part-02_label-phase2,2020.1.2,MacIntel,60,right,1.75,2,0.336,0,133,133,0,1,stimuli/objects/treestump.jpg,left,old,1,,,,,,,,
,,,,,,,,5,2020-12-18_16h43.28.740,premce3DEU_ses-02_part-02_label-phase2,2020.1.2,MacIntel,60,right,1.986,3,2.978,0,134,134,46,1,stimuli/objects/entrancegate.jpg,right,new,47,,,,,,,,
,,,,,,,,5,2020-12-18_16h43.28.740,premce3DEU_ses-02_part-02_label-phase2,2020.1.2,MacIntel,60,left,7.738,3,0.477,0,135,135,22,1,stimuli/objects/paperairplane.jpg,right,new,23,,,,,,,,
,,,,,,,,5,2020-12-18_16h43.28.740,premce3DEU_ses-02_part-02_label-phase2,2020.1.2,MacIntel,60,left,3.238,2,0.344,0,136,136,94,1,stimuli/objects/dandelion.jpg,right,new,95,,,,,,,,
,,,,,,,,5,2020-12-18_16h43.28.740,premce3DEU_ses-02_part-02_label-phase2,2020.1.2,MacIntel,60,right,0.998,3,1.289,0,137,137,145,1,stimuli/objects/church.jpg,right,new,146,,,,,,,,
,,,,,,,,5,2020-12-18_16h43.28.740,premce3DEU_ses-02_part-02_label-phase2,2020.1.2,MacIntel,60,left,2.216,3,0.391,0,138,138,49,1,stimuli/objects/triangle.jpg,left,old,50,,,,,,,,
,,,,,,,,5,2020-12-18_16h43.28.740,premce3DEU_ses-02_part-02_label-phase2,2020.1.2,MacIntel,60,right,1.659,3,1.315,0,139,139,108,1,stimuli/objects/communitymailbox.jpg,left,old,109,,,,,,,,
,,,,,,,,5,2020-12-18_16h43.28.740,premce3DEU_ses-02_part-02_label-phase2,2020.1.2,MacIntel,60,left,1.253,3,0.344,0,140,140,15,1,stimuli/objects/dromedary.jpg,left,old,16,,,,,,,,
,,,,,,,,5,2020-12-18_16h43.28.740,premce3DEU_ses-02_part-02_label-phase2,2020.1.2,MacIntel,60,left,1.205,3,0.371,0,141,141,142,1,stimuli/objects/giraffe.jpg,left,old,143,,,,,,,,
,,,,,,,,5,2020-12-18_16h43.28.740,premce3DEU_ses-02_part-02_label-phase2,2020.1.2,MacIntel,60,right,1.751,3,0.365,0,142,142,29,1,stimuli/objects/snowman.jpg,left,old,30,,,,,,,,
,,,,,,,,5,2020-12-18_16h43.28.740,premce3DEU_ses-02_part-02_label-phase2,2020.1.2,MacIntel,60,right,1.241,3,0.377,0,143,143,41,1,stimuli/objects/faxmachine.jpg,right,new,42,,,,,,,,
,,,,,,,,5,2020-12-18_16h43.28.740,premce3DEU_ses-02_part-02_label-phase2,2020.1.2,MacIntel,60,right,1.481,3,0.395,0,144,144,17,1,stimuli/objects/parkingmeter.jpg,right,new,18,,,,,,,,
,,,,,,,,5,2020-12-18_16h43.28.740,premce3DEU_ses-02_part-02_label-phase2,2020.1.2,MacIntel,60,left,2.209,3,1.087,0,145,145,4,1,stimuli/objects/skipole.jpg,right,new,5,,,,,,,,
,,,,,,,,5,2020-12-18_16h43.28.740,premce3DEU_ses-02_part-02_label-phase2,2020.1.2,MacIntel,60,left,1.446,3,0.393,0,146,146,75,1,stimuli/objects/barn.jpg,left,old,76,,,,,,,,
,,,,,,,,5,2020-12-18_16h43.28.740,premce3DEU_ses-02_part-02_label-phase2,2020.1.2,MacIntel,60,right,0.939,3,1.098,0,147,147,122,1,stimuli/objects/soccerball.jpg,left,old,123,,,,,,,,
,,,,,,,,5,2020-12-18_16h43.28.740,premce3DEU_ses-02_part-02_label-phase2,2020.1.2,MacIntel,60,left,1.316,3,0.535,0,148,148,8,1,stimuli/objects/englishcucumber.jpg,right,new,9,,,,,,,,
,,,,,,,,5,2020-12-18_16h43.28.740,premce3DEU_ses-02_part-02_label-phase2,2020.1.2,MacIntel,60,right,1.534,3,0.417,0,149,149,82,1,stimuli/objects/crown.jpg,left,old,83,,,,,,,,
,,,,,,,,5,2020-12-18_16h43.28.740,premce3DEU_ses-02_part-02_label-phase2,2020.1.2,MacIntel,60,left,2.513,2,1.187,0,150,150,95,1,stimuli/objects/scalpel.jpg,left,old,96,,,,,,,,
,,,,,,,,5,2020-12-18_16h43.28.740,premce3DEU_ses-02_part-02_label-phase2,2020.1.2,MacIntel,60,left,2.913,3,0.566,0,151,151,116,1,stimuli/objects/toucan.jpg,right,new,117,,,,,,,,
,,,,,,,,5,2020-12-18_16h43.28.740,premce3DEU_ses-02_part-02_label-phase2,2020.1.2,MacIntel,60,right,0.882,3,0.566,0,152,152,21,1,stimuli/objects/tire.jpg,right,new,22,,,,,,,,
,,,,,,,,5,2020-12-18_16h43.28.740,premce3DEU_ses-02_part-02_label-phase2,2020.1.2,MacIntel,60,right,1.279,3,0.642,0,153,153,67,1,stimuli/objects/volleyball.jpg,left,old,68,,,,,,,,
,,,,,,,,5,2020-12-18_16h43.28.740,premce3DEU_ses-02_part-02_label-phase2,2020.1.2,MacIntel,60,left,1.393,4,0.942,0,154,154,7,1,stimuli/objects/redonion.jpg,left,old,8,,,,,,,,
,,,,,,,,5,2020-12-18_16h43.28.740,premce3DEU_ses-02_part-02_label-phase2,2020.1.2,MacIntel,60,left,4.979,4,0.401,0,155,155,87,1,stimuli/objects/filingcabinet.jpg,left,old,88,,,,,,,,
,,,,,,,,5,2020-12-18_16h43.28.740,premce3DEU_ses-02_part-02_label-phase2,2020.1.2,MacIntel,60,left,2.211,3,1.58,0,156,156,47,1,stimuli/objects/stepladder.jpg,left,old,48,,,,,,,,
,,,,,,,,5,2020-12-18_16h43.28.740,premce3DEU_ses-02_part-02_label-phase2,2020.1.2,MacIntel,60,left,2.315,4,0.458,0,157,157,84,1,stimuli/objects/winniethepooh.jpg,left,old,85,,,,,,,,
,,,,,,,,5,2020-12-18_16h43.28.740,premce3DEU_ses-02_part-02_label-phase2,2020.1.2,MacIntel,60,right,1.8,4,1.209,0,158,158,140,1,stimuli/objects/exitsign.jpg,left,old,141,,,,,,,,
,,,,,,,,5,2020-12-18_16h43.28.740,premce3DEU_ses-02_part-02_label-phase2,2020.1.2,MacIntel,60,left,2.805,3,0.535,0,159,159,57,1,stimuli/objects/cupcake.jpg,right,new,58,,,,,,,,
,,,,,,,,5,2020-12-18_16h43.28.740,premce3DEU_ses-02_part-02_label-phase2,2020.1.2,MacIntel,60,,,,,,,,,,,,,,space,4.691,0,0,0,0,1,ImagesforRecog1.csv
,,,,,,,,5,2020-12-18_16h43.28.740,premce3DEU_ses-02_part-02_label-phase2,2020.1.2,MacIntel,60,right,2.935,3,0.507,0,0,0,76,1,stimuli/objects/statue.jpg,right,new,237,,,,,,,,
,,,,,,,,5,2020-12-18_16h43.28.740,premce3DEU_ses-02_part-02_label-phase2,2020.1.2,MacIntel,60,right,2.581,4,0.003,0,1,1,113,1,stimuli/objects/bluejay.jpg,right,new,274,,,,,,,,
,,,,,,,,5,2020-12-18_16h43.28.740,premce3DEU_ses-02_part-02_label-phase2,2020.1.2,MacIntel,60,right,1.642,3,0.33,0,2,2,4,1,stimuli/objects/blender.jpg,left,old,165,,,,,,,,
,,,,,,,,5,2020-12-18_16h43.28.740,premce3DEU_ses-02_part-02_label-phase2,2020.1.2,MacIntel,60,left,1.526,4,0.53,0,3,3,138,1,stimuli/objects/ladybug03.jpg,right,new,299,,,,,,,,
,,,,,,,,5,2020-12-18_16h43.28.740,premce3DEU_ses-02_part-02_label-phase2,2020.1.2,MacIntel,60,left,1.909,4,0.348,0,4,4,24,1,stimuli/objects/jaguar.jpg,left,old,185,,,,,,,,
,,,,,,,,5,2020-12-18_16h43.28.740,premce3DEU_ses-02_part-02_label-phase2,2020.1.2,MacIntel,60,left,1.617,4,0.531,0,5,5,79,1,stimuli/objects/polarbear.jpg,left,old,240,,,,,,,,
,,,,,,,,5,2020-12-18_16h43.28.740,premce3DEU_ses-02_part-02_label-phase2,2020.1.2,MacIntel,60,right,1.784,3,0.432,0,6,6,73,1,stimuli/objects/barrel01.jpg,left,old,234,,,,,,,,
,,,,,,,,5,2020-12-18_16h43.28.740,premce3DEU_ses-02_part-02_label-phase2,2020.1.2,MacIntel,60,left,2.3,3,0.409,0,7,7,107,1,stimuli/objects/tambourine03.jpg,right,new,268,,,,,,,,
,,,,,,,,5,2020-12-18_16h43.28.740,premce3DEU_ses-02_part-02_label-phase2,2020.1.2,MacIntel,60,right,1.433,3,0.401,0,8,8,28,1,stimuli/objects/car.jpg,left,old,189,,,,,,,,
,,,,,,,,5,2020-12-18_16h43.28.740,premce3DEU_ses-02_part-02_label-phase2,2020.1.2,MacIntel,60,right,2.551,2,1.4,0,9,9,66,1,stimuli/objects/tricornhat.jpg,right,new,227,,,,,,,,
,,,,,,,,5,2020-12-18_16h43.28.740,premce3DEU_ses-02_part-02_label-phase2,2020.1.2,MacIntel,60,left,2.416,3,0.39,0,10,10,88,1,stimuli/objects/toilet.jpg,right,new,249,,,,,,,,
,,,,,,,,5,2020-12-18_16h43.28.740,premce3DEU_ses-02_part-02_label-phase2,2020.1.2,MacIntel,60,left,2.07,4,1.015,0,11,11,30,1,stimuli/objects/key07.jpg,left,old,191,,,,,,,,
,,,,,,,,5,2020-12-18_16h43.28.740,premce3DEU_ses-02_part-02_label-phase2,2020.1.2,MacIntel,60,right,1.925,3,3.209,0,12,12,118,1,stimuli/objects/wallclock.jpg,right,new,279,,,,,,,,
,,,,,,,,5,2020-12-18_16h43.28.740,premce3DEU_ses-02_part-02_label-phase2,2020.1.2,MacIntel,60,left,1.267,3,0.448,0,13,13,71,1,stimuli/objects/tennisracket.jpg,right,new,232,,,,,,,,
,,,,,,,,5,2020-12-18_16h43.28.740,premce3DEU_ses-02_part-02_label-phase2,2020.1.2,MacIntel,60,right,0.99,3,0.689,0,14,14,91,1,stimuli/objects/shed02.jpg,right,new,252,,,,,,,,
,,,,,,,,5,2020-12-18_16h43.28.740,premce3DEU_ses-02_part-02_label-phase2,2020.1.2,MacIntel,60,right,0.726,3,0.423,0,15,15,141,1,stimuli/objects/gong.jpg,left,old,302,,,,,,,,
,,,,,,,,5,2020-12-18_16h43.28.740,premce3DEU_ses-02_part-02_label-phase2,2020.1.2,MacIntel,60,left,1.603,4,0.407,0,16,16,117,1,stimuli/objects/fingerprint.jpg,left,old,278,,,,,,,,
,,,,,,,,5,2020-12-18_16h43.28.740,premce3DEU_ses-02_part-02_label-phase2,2020.1.2,MacIntel,60,left,2.305,3,0.538,0,17,17,77,1,stimuli/objects/electricguitar01.jpg,left,old,238,,,,,,,,
,,,,,,,,5,2020-12-18_16h43.28.740,premce3DEU_ses-02_part-02_label-phase2,2020.1.2,MacIntel,60,left,1.105,4,0.841,0,18,18,47,1,stimuli/objects/candycane01a.jpg,left,old,208,,,,,,,,
,,,,,,,,5,2020-12-18_16h43.28.740,premce3DEU_ses-02_part-02_label-phase2,2020.1.2,MacIntel,60,right,1.693,3,0.413,0,19,19,49,1,stimuli/objects/surfboard.jpg,left,old,210,,,,,,,,
,,,,,,,,5,2020-12-18_16h43.28.740,premce3DEU_ses-02_part-02_label-phase2,2020.1.2,MacIntel,60,right,1.23,3,0.61,0,20,20,150,1,stimuli/objects/strap.jpg,right,new,311,,,,,,,,
,,,,,,,,5,2020-12-18_16h43.28.740,premce3DEU_ses-02_part-02_label-phase2,2020.1.2,MacIntel,60,right,2.582,4,0.522,0,21,21,6,1,stimuli/objects/popcorn.jpg,right,new,167,,,,,,,,
,,,,,,,,5,2020-12-18_16h43.28.740,premce3DEU_ses-02_part-02_label-phase2,2020.1.2,MacIntel,60,left,1.419,4,0.385,0,22,22,158,1,stimuli/objects/bowrake.jpg,right,new,319,,,,,,,,
,,,,,,,,5,2020-12-18_16h43.28.740,premce3DEU_ses-02_part-02_label-phase2,2020.1.2,MacIntel,60,left,2.699,4,0.371,0,23,23,119,1,stimuli/objects/sandbarshark.jpg,right,new,280,,,,,,,,
,,,,,,,,5,2020-12-18_16h43.28.740,premce3DEU_ses-02_part-02_label-phase2,2020.1.2,MacIntel,60,right,1.701,3,0.621,0,24,24,72,1,stimuli/objects/doghouse.jpg,left,old,233,,,,,,,,
,,,,,,,,5,2020-12-18_16h43.28.740,premce3DEU_ses-02_part-02_label-phase2,2020.1.2,MacIntel,60,left,2.829,3,0.363,0,25,25,156,1,stimuli/objects/shovel01.jpg,left,old,317,,,,,,,,
,,,,,,,,5,2020-12-18_16h43.28.740,premce3DEU_ses-02_part-02_label-phase2,2020.1.2,MacIntel,60,right,1.319,3,0.338,0,26,26,139,1,stimuli/objects/locomotive.jpg,left,old,300,,,,,,,,
,,,,,,,,5,2020-12-18_16h43.28.740,premce3DEU_ses-02_part-02_label-phase2,2020.1.2,MacIntel,60,left,3.387,3,0.145,0,27,27,96,1,stimuli/objects/hockeystick.jpg,left,old,257,,,,,,,,
,,,,,,,,5,2020-12-18_16h43.28.740,premce3DEU_ses-02_part-02_label-phase2,2020.1.2,MacIntel,60,right,1.224,3,0.418,0,28,28,120,1,stimuli/objects/airhockeytable.jpg,right,new,281,,,,,,,,
,,,,,,,,5,2020-12-18_16h43.28.740,premce3DEU_ses-02_part-02_label-phase2,2020.1.2,MacIntel,60,right,2.583,3,0.339,0,29,29,25,1,stimuli/objects/scooter.jpg,right,new,186,,,,,,,,
,,,,,,,,5,2020-12-18_16h43.28.740,premce3DEU_ses-02_part-02_label-phase2,2020.1.2,MacIntel,60,right,1.112,3,0.386,0,30,30,90,1,stimuli/objects/battleaxe.jpg,left,old,251,,,,,,,,
,,,,,,,,5,2020-12-18_16h43.28.740,premce3DEU_ses-02_part-02_label-phase2,2020.1.2,MacIntel,60,right,1.736,3,0.367,0,31,31,149,1,stimuli/objects/mortarandpestle.jpg,right,new,310,,,,,,,,
,,,,,,,,5,2020-12-18_16h43.28.740,premce3DEU_ses-02_part-02_label-phase2,2020.1.2,MacIntel,60,right,1.092,3,0.362,0,32,32,61,1,stimuli/objects/parrot01.jpg,right,new,222,,,,,,,,
,,,,,,,,5,2020-12-18_16h43.28.740,premce3DEU_ses-02_part-02_label-phase2,2020.1.2,MacIntel,60,right,0.845,3,0.404,0,33,33,45,1,stimuli/objects/siamesecat.jpg,right,new,206,,,,,,,,
,,,,,,,,5,2020-12-18_16h43.28.740,premce3DEU_ses-02_part-02_label-phase2,2020.1.2,MacIntel,60,right,0.671,3,0.435,0,34,34,31,1,stimuli/objects/horseshoe.jpg,right,new,192,,,,,,,,
,,,,,,,,5,2020-12-18_16h43.28.740,premce3DEU_ses-02_part-02_label-phase2,2020.1.2,MacIntel,60,right,0.902,2,1.923,0,35,35,99,1,stimuli/objects/bacon.jpg,left,old,260,,,,,,,,
,,,,,,,,5,2020-12-18_16h43.28.740,premce3DEU_ses-02_part-02_label-phase2,2020.1.2,MacIntel,60,left,2.789,3,0.346,0,36,36,104,1,stimuli/objects/rockingchair.jpg,left,old,265,,,,,,,,
,,,,,,,,5,2020-12-18_16h43.28.740,premce3DEU_ses-02_part-02_label-phase2,2020.1.2,MacIntel,60,left,1.54,3,0.597,0,37,37,147,1,stimuli/objects/bleachers.jpg,left,old,308,,,,,,,,
,,,,,,,,5,2020-12-18_16h43.28.740,premce3DEU_ses-02_part-02_label-phase2,2020.1.2,MacIntel,60,right,1.818,3,0.564,0,38,38,23,1,stimuli/objects/graduationcap.jpg,right,new,184,,,,,,,,
,,,,,,,,5,2020-12-18_16h43.28.740,premce3DEU_ses-02_part-02_label-phase2,2020.1.2,MacIntel,60,right,1.121,3,0.414,0,39,39,115,1,stimuli/objects/witchhat.jpg,left,old,276,,,,,,,,
,,,,,,,,5,2020-12-18_16h43.28.740,premce3DEU_ses-02_part-02_label-phase2,2020.1.2,MacIntel,60,right,1.407,3,0.328,0,40,40,32,1,stimuli/objects/cross01.jpg,right,new,193,,,,,,,,
,,,,,,,,5,2020-12-18_16h43.28.740,premce3DEU_ses-02_part-02_label-phase2,2020.1.2,MacIntel,60,right,4.867,2,0.96,0,41,41,53,1,stimuli/objects/parachute.jpg,right,new,214,,,,,,,,
,,,,,,,,5,2020-12-18_16h43.28.740,premce3DEU_ses-02_part-02_label-phase2,2020.1.2,MacIntel,60,right,1.351,2,0.506,0,42,42,15,1,stimuli/objects/stool01.jpg,left,old,176,,,,,,,,
,,,,,,,,5,2020-12-18_16h43.28.740,premce3DEU_ses-02_part-02_label-phase2,2020.1.2,MacIntel,60,right,1.005,3,0.705,0,43,43,136,1,stimuli/objects/mouse.jpg,right,new,297,,,,,,,,
,,,,,,,,5,2020-12-18_16h43.28.740,premce3DEU_ses-02_part-02_label-phase2,2020.1.2,MacIntel,60,right,1.439,3,0.346,0,44,44,126,1,stimuli/objects/birdfeeder.jpg,left,old,287,,,,,,,,
,,,,,,,,5,2020-12-18_16h43.28.740,premce3DEU_ses-02_part-02_label-phase2,2020.1.2,MacIntel,60,right,0.941,2,0.862,0,45,45,89,1,stimuli/objects/cruiseship.jpg,left,old,250,,,,,,,,
,,,,,,,,5,2020-12-18_16h43.28.740,premce3DEU_ses-02_part-02_label-phase2,2020.1.2,MacIntel,60,left,5.369,3,0.635,0,46,46,86,1,stimuli/objects/trafficlight.jpg,left,old,247,,,,,,,,
,,,,,,,,5,2020-12-18_16h43.28.740,premce3DEU_ses-02_part-02_label-phase2,2020.1.2,MacIntel,60,right,2.371,3,1.721,0,47,47,9,1,stimuli/objects/flag.jpg,right,new,170,,,,,,,,
,,,,,,,,5,2020-12-18_16h43.28.740,premce3DEU_ses-02_part-02_label-phase2,2020.1.2,MacIntel,60,right,1.309,3,0.351,0,48,48,63,1,stimuli/objects/pin.jpg,right,new,224,,,,,,,,
,,,,,,,,5,2020-12-18_16h43.28.740,premce3DEU_ses-02_part-02_label-phase2,2020.1.2,MacIntel,60,right,0.801,3,7.472,0,49,49,52,1,stimuli/objects/acorn.jpg,left,old,213,,,,,,,,
,,,,,,,,5,2020-12-18_16h43.28.740,premce3DEU_ses-02_part-02_label-phase2,2020.1.2,MacIntel,60,right,2.747,3,0.596,0,50,50,131,1,stimuli/objects/boxingglove01.jpg,right,new,292,,,,,,,,
,,,,,,,,5,2020-12-18_16h43.28.740,premce3DEU_ses-02_part-02_label-phase2,2020.1.2,MacIntel,60,right,4.029,3,0.406,0,51,51,19,1,stimuli/objects/zipper.jpg,right,new,180,,,,,,,,
,,,,,,,,5,2020-12-18_16h43.28.740,premce3DEU_ses-02_part-02_label-phase2,2020.1.2,MacIntel,60,right,1.514,4,0.712,0,52,52,0,1,stimuli/objects/hulahoop.jpg,left,old,161,,,,,,,,
,,,,,,,,5,2020-12-18_16h43.28.740,premce3DEU_ses-02_part-02_label-phase2,2020.1.2,MacIntel,60,right,1.088,3,1.355,0,53,53,102,1,stimuli/objects/baseballglove.jpg,left,old,263,,,,,,,,
,,,,,,,,5,2020-12-18_16h43.28.740,premce3DEU_ses-02_part-02_label-phase2,2020.1.2,MacIntel,60,right,0.721,3,0.354,0,54,54,153,1,stimuli/objects/fluorescentlightbulb.jpg,left,old,314,,,,,,,,
,,,,,,,,5,2020-12-18_16h43.28.740,premce3DEU_ses-02_part-02_label-phase2,2020.1.2,MacIntel,60,right,3.7,4,0.495,0,55,55,55,1,stimuli/objects/dogsled.jpg,left,old,216,,,,,,,,
,,,,,,,,5,2020-12-18_16h43.28.740,premce3DEU_ses-02_part-02_label-phase2,2020.1.2,MacIntel,60,left,1.743,4,0.38,0,56,56,36,1,stimuli/objects/sandcastle.jpg,left,old,197,,,,,,,,
,,,,,,,,5,2020-12-18_16h43.28.740,premce3DEU_ses-02_part-02_label-phase2,2020.1.2,MacIntel,60,left,1.985,4,0.379,0,57,57,111,1,stimuli/objects/jellybean.jpg,left,old,272,,,,,,,,
,,,,,,,,5,2020-12-18_16h43.28.740,premce3DEU_ses-02_part-02_label-phase2,2020.1.2,MacIntel,60,left,0.93,4,0.361,0,58,58,155,1,stimuli/objects/fishingrod.jpg,left,old,316,,,,,,,,
,,,,,,,,5,2020-12-18_16h43.28.740,premce3DEU_ses-02_part-02_label-phase2,2020.1.2,MacIntel,60,left,0.781,4,0.348,0,59,59,151,1,stimuli/objects/jellyfish.jpg,left,old,312,,,,,,,,
,,,,,,,,5,2020-12-18_16h43.28.740,premce3DEU_ses-02_part-02_label-phase2,2020.1.2,MacIntel,60,left,2.397,3,0.549,0,60,60,80,1,stimuli/objects/floorlamp.jpg,right,new,241,,,,,,,,
,,,,,,,,5,2020-12-18_16h43.28.740,premce3DEU_ses-02_part-02_label-phase2,2020.1.2,MacIntel,60,left,2.458,3,0.896,0,61,61,75,1,stimuli/objects/bookshelf.jpg,left,old,236,,,,,,,,
,,,,,,,,5,2020-12-18_16h43.28.740,premce3DEU_ses-02_part-02_label-phase2,2020.1.2,MacIntel,60,left,1.881,4,0.529,0,62,62,93,1,stimuli/objects/slushiemachine.jpg,right,new,254,,,,,,,,
,,,,,,,,5,2020-12-18_16h43.28.740,premce3DEU_ses-02_part-02_label-phase2,2020.1.2,MacIntel,60,right,1.31,4,0.596,0,63,63,64,1,stimuli/objects/trojanhorse.jpg,right,new,225,,,,,,,,
,,,,,,,,5,2020-12-18_16h43.28.740,premce3DEU_ses-02_part-02_label-phase2,2020.1.2,MacIntel,60,left,1.809,3,0.322,0,64,64,27,1,stimuli/objects/tombstone.jpg,right,new,188,,,,,,,,
,,,,,,,,5,2020-12-18_16h43.28.740,premce3DEU_ses-02_part-02_label-phase2,2020.1.2,MacIntel,60,left,1.461,4,0.365,0,65,65,130,1,stimuli/objects/pirateflag.jpg,left,old,291,,,,,,,,
,,,,,,,,5,2020-12-18_16h43.28.740,premce3DEU_ses-02_part-02_label-phase2,2020.1.2,MacIntel,60,left,1.696,3,0.314,0,66,66,51,1,stimuli/objects/kangaroo01.jpg,right,new,212,,,,,,,,
,,,,,,,,5,2020-12-18_16h43.28.740,premce3DEU_ses-02_part-02_label-phase2,2020.1.2,MacIntel,60,right,1.369,3,0.367,0,67,67,123,1,stimuli/objects/ironingboard01.jpg,left,old,284,,,,,,,,
,,,,,,,,5,2020-12-18_16h43.28.740,premce3DEU_ses-02_part-02_label-phase2,2020.1.2,MacIntel,60,left,1.882,2,0.643,0,68,68,133,1,stimuli/objects/kiwi03.jpg,right,new,294,,,,,,,,
,,,,,,,,5,2020-12-18_16h43.28.740,premce3DEU_ses-02_part-02_label-phase2,2020.1.2,MacIntel,60,right,1.733,2,0.493,0,69,69,16,1,stimuli/objects/dartboard.jpg,left,old,177,,,,,,,,
,,,,,,,,5,2020-12-18_16h43.28.740,premce3DEU_ses-02_part-02_label-phase2,2020.1.2,MacIntel,60,right,0.763,3,1.124,0,70,70,124,1,stimuli/objects/swing.jpg,right,new,285,,,,,,,,
,,,,,,,,5,2020-12-18_16h43.28.740,premce3DEU_ses-02_part-02_label-phase2,2020.1.2,MacIntel,60,left,2.135,2,0.369,0,71,71,5,1,stimuli/objects/wheelchair.jpg,left,old,166,,,,,,,,
,,,,,,,,5,2020-12-18_16h43.28.740,premce3DEU_ses-02_part-02_label-phase2,2020.1.2,MacIntel,60,left,1.691,4,1.137,0,72,72,148,1,stimuli/objects/snowglobe.jpg,left,old,309,,,,,,,,
,,,,,,,,5,2020-12-18_16h43.28.740,premce3DEU_ses-02_part-02_label-phase2,2020.1.2,MacIntel,60,right,1.42,2,2.293,0,73,73,129,1,stimuli/objects/escalator.jpg,left,old,290,,,,,,,,
,,,,,,,,5,2020-12-18_16h43.28.740,premce3DEU_ses-02_part-02_label-phase2,2020.1.2,MacIntel,60,left,3.339,3,0.719,0,74,74,40,1,stimuli/objects/beehive.jpg,right,new,201,,,,,,,,
,,,,,,,,5,2020-12-18_16h43.28.740,premce3DEU_ses-02_part-02_label-phase2,2020.1.2,MacIntel,60,right,1.937,3,0.329,0,75,75,142,1,stimuli/objects/lightswitch01.jpg,left,old,303,,,,,,,,
,,,,,,,,5,2020-12-18_16h43.28.740,premce3DEU_ses-02_part-02_label-phase2,2020.1.2,MacIntel,60,left,1.184,3,0.404,0,76,76,159,1,stimuli/objects/footballhelmet.jpg,left,old,320,,,,,,,,
,,,,,,,,5,2020-12-18_16h43.28.740,premce3DEU_ses-02_part-02_label-phase2,2020.1.2,MacIntel,60,left,1.26,4,0.393,0,77,77,44,1,stimuli/objects/donut.jpg,left,old,205,,,,,,,,
,,,,,,,,5,2020-12-18_16h43.28.740,premce3DEU_ses-02_part-02_label-phase2,2020.1.2,MacIntel,60,left,3.244,2,0.323,0,78,78,152,1,stimuli/objects/harmonica.jpg,right,new,313,,,,,,,,
,,,,,,,,5,2020-12-18_16h43.28.740,premce3DEU_ses-02_part-02_label-phase2,2020.1.2,MacIntel,60,left,7.407,2,0.74,0,79,79,121,1,stimuli/objects/shield02.jpg,right,new,282,,,,,,,,
,,,,,,,,5,2020-12-18_16h43.28.740,premce3DEU_ses-02_part-02_label-phase2,2020.1.2,MacIntel,60,left,1.994,2,0.472,0,80,80,92,1,stimuli/objects/mirror02.jpg,left,old,253,,,,,,,,
,,,,,,,,5,2020-12-18_16h43.28.740,premce3DEU_ses-02_part-02_label-phase2,2020.1.2,MacIntel,60,right,1.963,3,0.444,0,81,81,83,1,stimuli/objects/recyclingbin.jpg,left,old,244,,,,,,,,
,,,,,,,,5,2020-12-18_16h43.28.740,premce3DEU_ses-02_part-02_label-phase2,2020.1.2,MacIntel,60,right,1.225,3,0.029,0,82,82,100,1,stimuli/objects/doubledoors.jpg,left,old,261,,,,,,,,
,,,,,,,,5,2020-12-18_16h43.28.740,premce3DEU_ses-02_part-02_label-phase2,2020.1.2,MacIntel,60,right,1.595,2,0.908,0,83,83,38,1,stimuli/objects/bread.jpg,right,new,199,,,,,,,,
,,,,,,,,5,2020-12-18_16h43.28.740,premce3DEU_ses-02_part-02_label-phase2,2020.1.2,MacIntel,60,right,1.859,2,0.785,0,84,84,105,1,stimuli/objects/beerbottle.jpg,left,old,266,,,,,,,,
,,,,,,,,5,2020-12-18_16h43.28.740,premce3DEU_ses-02_part-02_label-phase2,2020.1.2,MacIntel,60,right,1.022,3,0.283,0,85,85,39,1,stimuli/objects/desktopcomputer.jpg,left,old,200,,,,,,,,
,,,,,,,,5,2020-12-18_16h43.28.740,premce3DEU_ses-02_part-02_label-phase2,2020.1.2,MacIntel,60,left,1.144,3,0.373,0,86,86,87,1,stimuli/objects/chipmunk.jpg,left,old,248,,,,,,,,
,,,,,,,,5,2020-12-18_16h43.28.740,premce3DEU_ses-02_part-02_label-phase2,2020.1.2,MacIntel,60,right,1.676,3,0.559,0,87,87,98,1,stimuli/objects/cashregister01.jpg,left,old,259,,,,,,,,
,,,,,,,,5,2020-12-18_16h43.28.740,premce3DEU_ses-02_part-02_label-phase2,2020.1.2,MacIntel,60,right,1.38,2,1.358,0,88,88,42,1,stimuli/objects/asianelephant.jpg,left,old,203,,,,,,,,
,,,,,,,,5,2020-12-18_16h43.28.740,premce3DEU_ses-02_part-02_label-phase2,2020.1.2,MacIntel,60,left,1.792,3,0.328,0,89,89,97,1,stimuli/objects/greywolf.jpg,left,old,258,,,,,,,,
,,,,,,,,5,2020-12-18_16h43.28.740,premce3DEU_ses-02_part-02_label-phase2,2020.1.2,MacIntel,60,right,1.746,3,0.387,0,90,90,127,1,stimuli/objects/shelf.jpg,right,new,288,,,,,,,,
,,,,,,,,5,2020-12-18_16h43.28.740,premce3DEU_ses-02_part-02_label-phase2,2020.1.2,MacIntel,60,right,1.055,3,0.359,0,91,91,140,1,stimuli/objects/treadmill.jpg,left,old,301,,,,,,,,
,,,,,,,,5,2020-12-18_16h43.28.740,premce3DEU_ses-02_part-02_label-phase2,2020.1.2,MacIntel,60,right,0.691,4,0.641,0,92,92,84,1,stimuli/objects/carbattery.jpg,right,new,245,,,,,,,,
,,,,,,,,5,2020-12-18_16h43.28.740,premce3DEU_ses-02_part-02_label-phase2,2020.1.2,MacIntel,60,right,0.808,4,0.423,0,93,93,17,1,stimuli/objects/saltshaker03a.jpg,right,new,178,,,,,,,,
,,,,,,,,5,2020-12-18_16h43.28.740,premce3DEU_ses-02_part-02_label-phase2,2020.1.2,MacIntel,60,left,1.441,3,0.448,0,94,94,41,1,stimuli/objects/zebra.jpg,left,old,202,,,,,,,,
,,,,,,,,5,2020-12-18_16h43.28.740,premce3DEU_ses-02_part-02_label-phase2,2020.1.2,MacIntel,60,left,1.119,3,0.326,0,95,95,11,1,stimuli/objects/dolphin01.jpg,left,old,172,,,,,,,,
,,,,,,,,5,2020-12-18_16h43.28.740,premce3DEU_ses-02_part-02_label-phase2,2020.1.2,MacIntel,60,right,1.749,4,0.394,0,96,96,69,1,stimuli/objects/bumpercar.jpg,right,new,230,,,,,,,,
,,,,,,,,5,2020-12-18_16h43.28.740,premce3DEU_ses-02_part-02_label-phase2,2020.1.2,MacIntel,60,right,1.738,3,0.787,0,97,97,2,1,stimuli/objects/moon.jpg,left,old,163,,,,,,,,
,,,,,,,,5,2020-12-18_16h43.28.740,premce3DEU_ses-02_part-02_label-phase2,2020.1.2,MacIntel,60,right,0.822,3,0.661,0,98,98,18,1,stimuli/objects/showerhead01.jpg,left,old,179,,,,,,,,
,,,,,,,,5,2020-12-18_16h43.28.740,premce3DEU_ses-02_part-02_label-phase2,2020.1.2,MacIntel,60,right,0.628,3,0.359,0,99,99,144,1,stimuli/objects/walkietalkie.jpg,right,new,305,,,,,,,,
,,,,,,,,5,2020-12-18_16h43.28.740,premce3DEU_ses-02_part-02_label-phase2,2020.1.2,MacIntel,60,right,1.493,2,0.62,0,100,100,22,1,stimuli/objects/crab01.jpg,left,old,183,,,,,,,,
,,,,,,,,5,2020-12-18_16h43.28.740,premce3DEU_ses-02_part-02_label-phase2,2020.1.2,MacIntel,60,right,1.528,3,0.295,0,101,101,116,1,stimuli/objects/rollerblade.jpg,left,old,277,,,,,,,,
,,,,,,,,5,2020-12-18_16h43.28.740,premce3DEU_ses-02_part-02_label-phase2,2020.1.2,MacIntel,60,right,0.955,3,0.532,0,102,102,157,1,stimuli/objects/eagle.jpg,right,new,318,,,,,,,,
,,,,,,,,5,2020-12-18_16h43.28.740,premce3DEU_ses-02_part-02_label-phase2,2020.1.2,MacIntel,60,right,0.987,4,0.782,0,103,103,135,1,stimuli/objects/penguin.jpg,right,new,296,,,,,,,,
,,,,,,,,5,2020-12-18_16h43.28.740,premce3DEU_ses-02_part-02_label-phase2,2020.1.2,MacIntel,60,left,1.489,4,0.424,0,104,104,12,1,stimuli/objects/musicsheet.jpg,right,new,173,,,,,,,,
,,,,,,,,5,2020-12-18_16h43.28.740,premce3DEU_ses-02_part-02_label-phase2,2020.1.2,MacIntel,60,right,2.837,3,0.458,0,105,105,46,1,stimuli/objects/kneepad01c.jpg,right,new,207,,,,,,,,
,,,,,,,,5,2020-12-18_16h43.28.740,premce3DEU_ses-02_part-02_label-phase2,2020.1.2,MacIntel,60,right,0.687,4,0.752,0,106,106,106,1,stimuli/objects/squirrel.jpg,right,new,267,,,,,,,,
,,,,,,,,5,2020-12-18_16h43.28.740,premce3DEU_ses-02_part-02_label-phase2,2020.1.2,MacIntel,60,right,0.721,4,0.344,0,107,107,65,1,stimuli/objects/spacerover.jpg,right,new,226,,,,,,,,
,,,,,,,,5,2020-12-18_16h43.28.740,premce3DEU_ses-02_part-02_label-phase2,2020.1.2,MacIntel,60,right,0.9,3,1.576,0,108,108,114,1,stimuli/objects/cymbal.jpg,left,old,275,,,,,,,,
,,,,,,,,5,2020-12-18_16h43.28.740,premce3DEU_ses-02_part-02_label-phase2,2020.1.2,MacIntel,60,right,1.073,3,2.083,0,109,109,10,1,stimuli/objects/spicerack.jpg,left,old,171,,,,,,,,
,,,,,,,,5,2020-12-18_16h43.28.740,premce3DEU_ses-02_part-02_label-phase2,2020.1.2,MacIntel,60,right,1.783,4,0.307,0,110,110,137,1,stimuli/objects/waterfall.jpg,right,new,298,,,,,,,,
,,,,,,,,5,2020-12-18_16h43.28.740,premce3DEU_ses-02_part-02_label-phase2,2020.1.2,MacIntel,60,right,1.537,4,0.052,0,111,111,20,1,stimuli/objects/toysoldier01b.jpg,right,new,181,,,,,,,,
,,,,,,,,5,2020-12-18_16h43.28.740,premce3DEU_ses-02_part-02_label-phase2,2020.1.2,MacIntel,60,right,1.226,2,0.429,0,112,112,132,1,stimuli/objects/windshieldwiper02.jpg,left,old,293,,,,,,,,
,,,,,,,,5,2020-12-18_16h43.28.740,premce3DEU_ses-02_part-02_label-phase2,2020.1.2,MacIntel,60,left,2.471,2,0.461,0,113,113,54,1,stimuli/objects/acousticguitar02.jpg,right,new,215,,,,,,,,
,,,,,,,,5,2020-12-18_16h43.28.740,premce3DEU_ses-02_part-02_label-phase2,2020.1.2,MacIntel,60,right,2.725,3,0.356,0,114,114,62,1,stimuli/objects/painting.jpg,right,new,223,,,,,,,,
,,,,,,,,5,2020-12-18_16h43.28.740,premce3DEU_ses-02_part-02_label-phase2,2020.1.2,MacIntel,60,right,2.225,2,0.203,0,115,115,58,1,stimuli/objects/tricycle.jpg,left,old,219,,,,,,,,
,,,,,,,,5,2020-12-18_16h43.28.740,premce3DEU_ses-02_part-02_label-phase2,2020.1.2,MacIntel,60,right,1.084,2,0.732,0,116,116,146,1,stimuli/objects/tie02.jpg,left,old,307,,,,,,,,
,,,,,,,,5,2020-12-18_16h43.28.740,premce3DEU_ses-02_part-02_label-phase2,2020.1.2,MacIntel,60,right,1.786,2,0.39,0,117,117,145,1,stimuli/objects/rooster.jpg,right,new,306,,,,,,,,
,,,,,,,,5,2020-12-18_16h43.28.740,premce3DEU_ses-02_part-02_label-phase2,2020.1.2,MacIntel,60,right,2.397,2,0.322,0,118,118,14,1,stimuli/objects/ipad02.jpg,left,old,175,,,,,,,,
,,,,,,,,5,2020-12-18_16h43.28.740,premce3DEU_ses-02_part-02_label-phase2,2020.1.2,MacIntel,60,right,1.03,2,0.273,0,119,119,134,1,stimuli/objects/bikelock.jpg,right,new,295,,,,,,,,
,,,,,,,,5,2020-12-18_16h43.28.740,premce3DEU_ses-02_part-02_label-phase2,2020.1.2,MacIntel,60,right,1.784,3,0.311,0,120,120,74,1,stimuli/objects/turnstile.jpg,right,new,235,,,,,,,,
,,,,,,,,5,2020-12-18_16h43.28.740,premce3DEU_ses-02_part-02_label-phase2,2020.1.2,MacIntel,60,left,2.173,3,0.887,0,121,121,43,1,stimuli/objects/poolcue.jpg,right,new,204,,,,,,,,
,,,,,,,,5,2020-12-18_16h43.28.740,premce3DEU_ses-02_part-02_label-phase2,2020.1.2,MacIntel,60,left,1.283,2,0.724,0,122,122,103,1,stimuli/objects/seagull.jpg,left,old,264,,,,,,,,
,,,,,,,,5,2020-12-18_16h43.28.740,premce3DEU_ses-02_part-02_label-phase2,2020.1.2,MacIntel,60,right,0.934,3,0.726,0,123,123,34,1,stimuli/objects/shelves.jpg,left,old,195,,,,,,,,
,,,,,,,,5,2020-12-18_16h43.28.740,premce3DEU_ses-02_part-02_label-phase2,2020.1.2,MacIntel,60,right,1.238,3,0.335,0,124,124,95,1,stimuli/objects/sealion.jpg,right,new,256,,,,,,,,
,,,,,,,,5,2020-12-18_16h43.28.740,premce3DEU_ses-02_part-02_label-phase2,2020.1.2,MacIntel,60,right,2.587,3,0.099,0,125,125,82,1,stimuli/objects/duck01.jpg,left,old,243,,,,,,,,
,,,,,,,,5,2020-12-18_16h43.28.740,premce3DEU_ses-02_part-02_label-phase2,2020.1.2,MacIntel,60,right,4.79,3,0.287,0,126,126,78,1,stimuli/objects/hockeypuck.jpg,left,old,239,,,,,,,,
,,,,,,,,5,2020-12-18_16h43.28.740,premce3DEU_ses-02_part-02_label-phase2,2020.1.2,MacIntel,60,right,1.152,2,0.431,0,127,127,101,1,stimuli/objects/microphone01.jpg,right,new,262,,,,,,,,
,,,,,,,,5,2020-12-18_16h43.28.740,premce3DEU_ses-02_part-02_label-phase2,2020.1.2,MacIntel,60,right,0.94,3,0.864,0,128,128,128,1,stimuli/objects/chime.jpg,left,old,289,,,,,,,,
,,,,,,,,5,2020-12-18_16h43.28.740,premce3DEU_ses-02_part-02_label-phase2,2020.1.2,MacIntel,60,right,0.582,3,0.31,0,129,129,7,1,stimuli/objects/bolt01a.jpg,left,old,168,,,,,,,,
,,,,,,,,5,2020-12-18_16h43.28.740,premce3DEU_ses-02_part-02_label-phase2,2020.1.2,MacIntel,60,right,0.654,2,0.767,0,130,130,26,1,stimuli/objects/schoolbus.jpg,right,new,187,,,,,,,,
,,,,,,,,5,2020-12-18_16h43.28.740,premce3DEU_ses-02_part-02_label-phase2,2020.1.2,MacIntel,60,left,1.55,3,0.429,0,131,131,143,1,stimuli/objects/taxisign.jpg,right,new,304,,,,,,,,
,,,,,,,,5,2020-12-18_16h43.28.740,premce3DEU_ses-02_part-02_label-phase2,2020.1.2,MacIntel,60,right,1.319,3,0.366,0,132,132,154,1,stimuli/objects/frisbee.jpg,left,old,315,,,,,,,,
,,,,,,,,5,2020-12-18_16h43.28.740,premce3DEU_ses-02_part-02_label-phase2,2020.1.2,MacIntel,60,left,2.34,3,0.642,0,133,133,21,1,stimuli/objects/gorilla.jpg,right,new,182,,,,,,,,
,,,,,,,,5,2020-12-18_16h43.28.740,premce3DEU_ses-02_part-02_label-phase2,2020.1.2,MacIntel,60,right,0.917,3,0.263,0,134,134,3,1,stimuli/objects/bathtub.jpg,left,old,164,,,,,,,,
,,,,,,,,5,2020-12-18_16h43.28.740,premce3DEU_ses-02_part-02_label-phase2,2020.1.2,MacIntel,60,left,1.274,3,0.388,0,135,135,57,1,stimuli/objects/spaghetti01.jpg,right,new,218,,,,,,,,
,,,,,,,,5,2020-12-18_16h43.28.740,premce3DEU_ses-02_part-02_label-phase2,2020.1.2,MacIntel,60,left,2.343,3,0.292,0,136,136,108,1,stimuli/objects/cork02.jpg,left,old,269,,,,,,,,
,,,,,,,,5,2020-12-18_16h43.28.740,premce3DEU_ses-02_part-02_label-phase2,2020.1.2,MacIntel,60,right,1.045,3,0.315,0,137,137,37,1,stimuli/objects/football.jpg,left,old,198,,,,,,,,
,,,,,,,,5,2020-12-18_16h43.28.740,premce3DEU_ses-02_part-02_label-phase2,2020.1.2,MacIntel,60,right,0.75,3,0.982,0,138,138,70,1,stimuli/objects/cormorant.jpg,right,new,231,,,,,,,,
,,,,,,,,5,2020-12-18_16h43.28.740,premce3DEU_ses-02_part-02_label-phase2,2020.1.2,MacIntel,60,left,1.681,3,0.36,0,139,139,85,1,stimuli/objects/skiboot01a.jpg,left,old,246,,,,,,,,
,,,,,,,,5,2020-12-18_16h43.28.740,premce3DEU_ses-02_part-02_label-phase2,2020.1.2,MacIntel,60,left,2.223,2,1.769,0,140,140,122,1,stimuli/objects/lip.jpg,right,new,283,,,,,,,,
,,,,,,,,5,2020-12-18_16h43.28.740,premce3DEU_ses-02_part-02_label-phase2,2020.1.2,MacIntel,60,left,1.472,4,0.469,0,141,141,112,1,stimuli/objects/hotdog.jpg,left,old,273,,,,,,,,
,,,,,,,,5,2020-12-18_16h43.28.740,premce3DEU_ses-02_part-02_label-phase2,2020.1.2,MacIntel,60,right,0.901,4,2.258,0,142,142,50,1,stimuli/objects/cowbell.jpg,right,new,211,,,,,,,,
,,,,,,,,5,2020-12-18_16h43.28.740,premce3DEU_ses-02_part-02_label-phase2,2020.1.2,MacIntel,60,left,3.224,4,0.301,0,143,143,59,1,stimuli/objects/nosmokingsign.jpg,right,new,220,,,,,,,,
,,,,,,,,5,2020-12-18_16h43.28.740,premce3DEU_ses-02_part-02_label-phase2,2020.1.2,MacIntel,60,right,1.169,3,0.253,0,144,144,81,1,stimuli/objects/raccoon.jpg,right,new,242,,,,,,,,
,,,,,,,,5,2020-12-18_16h43.28.740,premce3DEU_ses-02_part-02_label-phase2,2020.1.2,MacIntel,60,left,0.984,4,0.727,0,145,145,94,1,stimuli/objects/scorpion.jpg,right,new,255,,,,,,,,
,,,,,,,,5,2020-12-18_16h43.28.740,premce3DEU_ses-02_part-02_label-phase2,2020.1.2,MacIntel,60,right,2.676,2,1.646,0,146,146,56,1,stimuli/objects/toyanimal05.jpg,left,old,217,,,,,,,,
,,,,,,,,5,2020-12-18_16h43.28.740,premce3DEU_ses-02_part-02_label-phase2,2020.1.2,MacIntel,60,right,1.799,3,1.434,0,147,147,110,1,stimuli/objects/funnel.jpg,right,new,271,,,,,,,,
,,,,,,,,5,2020-12-18_16h43.28.740,premce3DEU_ses-02_part-02_label-phase2,2020.1.2,MacIntel,60,right,1.07,3,0.668,0,148,148,29,1,stimuli/objects/steeringwheel.jpg,right,new,190,,,,,,,,
,,,,,,,,5,2020-12-18_16h43.28.740,premce3DEU_ses-02_part-02_label-phase2,2020.1.2,MacIntel,60,left,2.149,3,0.58,0,149,149,8,1,stimuli/objects/cloud.jpg,left,old,169,,,,,,,,
,,,,,,,,5,2020-12-18_16h43.28.740,premce3DEU_ses-02_part-02_label-phase2,2020.1.2,MacIntel,60,left,1.436,3,0.195,0,150,150,68,1,stimuli/objects/drumset.jpg,right,new,229,,,,,,,,
,,,,,,,,5,2020-12-18_16h43.28.740,premce3DEU_ses-02_part-02_label-phase2,2020.1.2,MacIntel,60,left,2.394,4,0.299,0,151,151,125,1,stimuli/objects/whiteout.jpg,left,old,286,,,,,,,,
,,,,,,,,5,2020-12-18_16h43.28.740,premce3DEU_ses-02_part-02_label-phase2,2020.1.2,MacIntel,60,left,4.507,3,0.026,0,152,152,13,1,stimuli/objects/sailboat.jpg,left,old,174,,,,,,,,
,,,,,,,,5,2020-12-18_16h43.28.740,premce3DEU_ses-02_part-02_label-phase2,2020.1.2,MacIntel,60,left,3.874,4,0.155,0,153,153,67,1,stimuli/objects/snowshovel.jpg,left,old,228,,,,,,,,
,,,,,,,,5,2020-12-18_16h43.28.740,premce3DEU_ses-02_part-02_label-phase2,2020.1.2,MacIntel,60,left,4.283,4,0.327,0,154,154,35,1,stimuli/objects/xylophone.jpg,left,old,196,,,,,,,,
,,,,,,,,5,2020-12-18_16h43.28.740,premce3DEU_ses-02_part-02_label-phase2,2020.1.2,MacIntel,60,left,2.043,3,0.631,0,155,155,1,1,stimuli/objects/tent.jpg,left,old,162,,,,,,,,
,,,,,,,,5,2020-12-18_16h43.28.740,premce3DEU_ses-02_part-02_label-phase2,2020.1.2,MacIntel,60,left,2.547,3,0.311,0,156,156,109,1,stimuli/objects/spiderweb.jpg,right,new,270,,,,,,,,
,,,,,,,,5,2020-12-18_16h43.28.740,premce3DEU_ses-02_part-02_label-phase2,2020.1.2,MacIntel,60,right,2.207,2,0.895,0,157,157,33,1,stimuli/objects/noparkingsign.jpg,right,new,194,,,,,,,,
,,,,,,,,5,2020-12-18_16h43.28.740,premce3DEU_ses-02_part-02_label-phase2,2020.1.2,MacIntel,60,right,1.307,2,0.562,0,158,158,60,1,stimuli/objects/hammerheadshark.jpg,right,new,221,,,,,,,,
,,,,,,,,5,2020-12-18_16h43.28.740,premce3DEU_ses-02_part-02_label-phase2,2020.1.2,MacIntel,60,right,1.622,2,0.29,0,159,159,48,1,stimuli/objects/rubikcube.jpg,right,new,209,,,,,,,,
,,,,,,,,5,2020-12-18_16h43.28.740,premce3DEU_ses-02_part-02_label-phase2,2020.1.2,MacIntel,60,,,,,,,,,,,,,,space,20.951,0,1,1,1,1,ImagesforRecog2.csv
