Instr_resp_2.keys,Instr_resp_2.rt,warmup_resp.keys,warmup_resp.corr,warmup_resp.rt,myownaccuracy,respcorrs,myownaccuracyCORR,trials.thisRepN,trials.thisTrialN,trials.thisN,trials.thisIndex,trials.ran,first_butterfly,second_butterfly,Cue,left_flower,top_flower,bottom_flower,right_flower,corr_ans,obj_file,trial_cond,switch_cond,cuedButter,trial_type,participant,date,expName,psychopyVersion,OS,frameRate,Instr_resp.keys,Instr_resp.rt,taskGoresp.keys,taskGoresp.rt,task_resp_3.keys,task_resp_3.corr,task_resp_3.rt,task_loop.thisRepN,task_loop.thisTrialN,task_loop.thisN,task_loop.thisIndex,task_loop.ran,list_loop.thisRepN,list_loop.thisTrialN,list_loop.thisN,list_loop.thisIndex,list_loop.ran,list,key_resp.keys,key_resp.rt
space,49.91498,right,1,0.821195,1,[],1,0,0,0,0,1,stimuli/grey_butterfly.png,stimuli/white_butterfly.png,2,stimuli/green_flower.png,stimuli/red_flower.png,stimuli/yellow_flower.png,stimuli/blue_flower.png,right,stimuli/objects/tennisracket.jpg,1,99,stimuli/white_butterfly.png,0,6,2020-12-22_10h07.41.780,premce3DEU_ses-02_part-01_label-phase1,2020.1.2,Win32,60,,,,,,,,,,,,,,,,,,,,
,,right,1,0.59604,1,[1],1,0,1,1,6,1,stimuli/grey_butterfly.png,stimuli/white_butterfly.png,1,stimuli/green_flower.png,stimuli/yellow_flower.png,stimuli/blue_flower.png,stimuli/red_flower.png,right,stimuli/objects/flipflop01b.jpg,1,99,stimuli/grey_butterfly.png,0,6,2020-12-22_10h07.41.780,premce3DEU_ses-02_part-01_label-phase1,2020.1.2,Win32,60,,,,,,,,,,,,,,,,,,,,
,,right,1,0.914285,1,"[1,1]",1,0,2,2,20,1,stimuli/white_butterfly.png,stimuli/grey_butterfly.png,2,stimuli/green_flower.png,stimuli/blue_flower.png,stimuli/yellow_flower.png,stimuli/red_flower.png,right,stimuli/objects/toucan.jpg,1,99,stimuli/grey_butterfly.png,1,6,2020-12-22_10h07.41.780,premce3DEU_ses-02_part-01_label-phase1,2020.1.2,Win32,60,,,,,,,,,,,,,,,,,,,,
,,up,1,0.63084,1,"[1,1,1]",1,0,3,3,14,1,stimuli/grey_butterfly.png,stimuli/white_butterfly.png,1,stimuli/blue_flower.png,stimuli/red_flower.png,stimuli/yellow_flower.png,stimuli/green_flower.png,up,stimuli/objects/shed02.jpg,1,99,stimuli/grey_butterfly.png,1,6,2020-12-22_10h07.41.780,premce3DEU_ses-02_part-01_label-phase1,2020.1.2,Win32,60,,,,,,,,,,,,,,,,,,,,
,,right,0,0.537305,0,"[1,1,1,1]",1,0,4,4,11,1,stimuli/white_butterfly.png,stimuli/grey_butterfly.png,2,stimuli/blue_flower.png,stimuli/green_flower.png,stimuli/yellow_flower.png,stimuli/red_flower.png,left,stimuli/objects/bookshelf.jpg,0,99,stimuli/grey_butterfly.png,1,6,2020-12-22_10h07.41.780,premce3DEU_ses-02_part-01_label-phase1,2020.1.2,Win32,60,,,,,,,,,,,,,,,,,,,,
,,up,1,0.517275,1,"[1,1,1,1]",1,0,5,5,19,1,stimuli/grey_butterfly.png,stimuli/white_butterfly.png,2,stimuli/yellow_flower.png,stimuli/blue_flower.png,stimuli/red_flower.png,stimuli/green_flower.png,up,stimuli/objects/motorcycle.jpg,1,99,stimuli/white_butterfly.png,1,6,2020-12-22_10h07.41.780,premce3DEU_ses-02_part-01_label-phase1,2020.1.2,Win32,60,,,,,,,,,,,,,,,,,,,,
,,down,1,0.8496,1,"[1,1,1,1,1]",1,0,6,6,5,1,stimuli/white_butterfly.png,stimuli/grey_butterfly.png,1,stimuli/green_flower.png,stimuli/red_flower.png,stimuli/blue_flower.png,stimuli/yellow_flower.png,down,stimuli/objects/birdfeeder.jpg,1,99,stimuli/white_butterfly.png,0,6,2020-12-22_10h07.41.780,premce3DEU_ses-02_part-01_label-phase1,2020.1.2,Win32,60,,,,,,,,,,,,,,,,,,,,
,,down,0,0.781505,0,"[1,1,1,1,1,1]",1,0,7,7,3,1,stimuli/white_butterfly.png,stimuli/grey_butterfly.png,2,stimuli/green_flower.png,stimuli/blue_flower.png,stimuli/red_flower.png,stimuli/yellow_flower.png,left,stimuli/objects/cigar.jpg,0,99,stimuli/grey_butterfly.png,0,6,2020-12-22_10h07.41.780,premce3DEU_ses-02_part-01_label-phase1,2020.1.2,Win32,60,,,,,,,,,,,,,,,,,,,,
,,down,0,0.764755,0,"[1,1,1,1,1,1]",0,0,8,8,15,1,stimuli/grey_butterfly.png,stimuli/white_butterfly.png,1,stimuli/red_flower.png,stimuli/yellow_flower.png,stimuli/blue_flower.png,stimuli/green_flower.png,left,stimuli/objects/wheat.jpg,1,99,stimuli/grey_butterfly.png,1,6,2020-12-22_10h07.41.780,premce3DEU_ses-02_part-01_label-phase1,2020.1.2,Win32,60,,,,,,,,,,,,,,,,,,,,
,,up,1,0.548665,1,"[1,1,1,1,1,1,0]",1,0,9,9,2,1,stimuli/white_butterfly.png,stimuli/grey_butterfly.png,2,stimuli/blue_flower.png,stimuli/red_flower.png,stimuli/yellow_flower.png,stimuli/green_flower.png,up,stimuli/objects/corn02.jpg,1,99,stimuli/grey_butterfly.png,0,6,2020-12-22_10h07.41.780,premce3DEU_ses-02_part-01_label-phase1,2020.1.2,Win32,60,,,,,,,,,,,,,,,,,,,,
,,left,1,0.784195,1,"[1,1,1,1,1,1,0,1]",1,0,10,10,8,1,stimuli/white_butterfly.png,stimuli/grey_butterfly.png,2,stimuli/red_flower.png,stimuli/blue_flower.png,stimuli/green_flower.png,stimuli/yellow_flower.png,left,stimuli/objects/shelf.jpg,1,99,stimuli/grey_butterfly.png,0,6,2020-12-22_10h07.41.780,premce3DEU_ses-02_part-01_label-phase1,2020.1.2,Win32,60,,,,,,,,,,,,,,,,,,,,
,,left,1,0.811945,1,"[1,1,1,1,1,1,0,1,1]",1,0,11,11,9,1,stimuli/white_butterfly.png,stimuli/grey_butterfly.png,1,stimuli/blue_flower.png,stimuli/red_flower.png,stimuli/yellow_flower.png,stimuli/green_flower.png,left,stimuli/objects/skunk.jpg,1,99,stimuli/white_butterfly.png,0,6,2020-12-22_10h07.41.780,premce3DEU_ses-02_part-01_label-phase1,2020.1.2,Win32,60,,,,,,,,,,,,,,,,,,,,
,,down,0,0.95573,0,"[1,1,1,1,1,1,0,1,1,1]",1,0,12,12,10,1,stimuli/white_butterfly.png,stimuli/grey_butterfly.png,1,stimuli/green_flower.png,stimuli/yellow_flower.png,stimuli/blue_flower.png,stimuli/red_flower.png,left,stimuli/objects/anchor.jpg,0,99,stimuli/white_butterfly.png,0,6,2020-12-22_10h07.41.780,premce3DEU_ses-02_part-01_label-phase1,2020.1.2,Win32,60,,,,,,,,,,,,,,,,,,,,
,,up,1,0.767675,1,"[1,1,1,1,1,1,0,1,1,1]",1,0,13,13,1,1,stimuli/white_butterfly.png,stimuli/grey_butterfly.png,2,stimuli/yellow_flower.png,stimuli/red_flower.png,stimuli/blue_flower.png,stimuli/green_flower.png,up,stimuli/objects/marble.jpg,1,99,stimuli/grey_butterfly.png,0,6,2020-12-22_10h07.41.780,premce3DEU_ses-02_part-01_label-phase1,2020.1.2,Win32,60,,,,,,,,,,,,,,,,,,,,
,,left,0,1.134455,0,"[1,1,1,1,1,1,0,1,1,1,1]",1,0,14,14,17,1,stimuli/grey_butterfly.png,stimuli/white_butterfly.png,1,stimuli/red_flower.png,stimuli/green_flower.png,stimuli/yellow_flower.png,stimuli/blue_flower.png,down,stimuli/objects/butterfly4.jpg,0,99,stimuli/grey_butterfly.png,1,6,2020-12-22_10h07.41.780,premce3DEU_ses-02_part-01_label-phase1,2020.1.2,Win32,60,,,,,,,,,,,,,,,,,,,,
,,right,1,0.54524,1,"[1,1,1,1,1,1,0,1,1,1,1]",1,0,15,15,4,1,stimuli/white_butterfly.png,stimuli/grey_butterfly.png,1,stimuli/green_flower.png,stimuli/red_flower.png,stimuli/yellow_flower.png,stimuli/blue_flower.png,right,stimuli/objects/tire.jpg,1,99,stimuli/white_butterfly.png,0,6,2020-12-22_10h07.41.780,premce3DEU_ses-02_part-01_label-phase1,2020.1.2,Win32,60,,,,,,,,,,,,,,,,,,,,
,,right,1,0.46713,1,"[1,1,1,1,1,1,0,1,1,1,1,1]",1,0,16,16,16,1,stimuli/grey_butterfly.png,stimuli/white_butterfly.png,2,stimuli/red_flower.png,stimuli/yellow_flower.png,stimuli/green_flower.png,stimuli/blue_flower.png,right,stimuli/objects/foosballtable.jpg,1,99,stimuli/white_butterfly.png,1,6,2020-12-22_10h07.41.780,premce3DEU_ses-02_part-01_label-phase1,2020.1.2,Win32,60,,,,,,,,,,,,,,,,,,,,
,,left,0,0.71102,0,"[1,1,1,1,1,1,0,1,1,1,1,1,1]",1,0,17,17,18,1,stimuli/grey_butterfly.png,stimuli/white_butterfly.png,2,stimuli/blue_flower.png,stimuli/yellow_flower.png,stimuli/green_flower.png,stimuli/red_flower.png,up,stimuli/objects/armadillo.jpg,0,99,stimuli/white_butterfly.png,1,6,2020-12-22_10h07.41.780,premce3DEU_ses-02_part-01_label-phase1,2020.1.2,Win32,60,,,,,,,,,,,,,,,,,,,,
,,left,0,1.479965,0,"[1,1,1,1,1,1,0,1,1,1,1,1,1]",1,0,18,18,13,1,stimuli/grey_butterfly.png,stimuli/white_butterfly.png,2,stimuli/blue_flower.png,stimuli/red_flower.png,stimuli/yellow_flower.png,stimuli/green_flower.png,up,stimuli/objects/payphone.jpg,0,99,stimuli/white_butterfly.png,1,6,2020-12-22_10h07.41.780,premce3DEU_ses-02_part-01_label-phase1,2020.1.2,Win32,60,,,,,,,,,,,,,,,,,,,,
,,left,0,2.16482,0,"[1,1,1,1,1,1,0,1,1,1,1,1,1]",0,0,19,19,7,1,stimuli/grey_butterfly.png,stimuli/white_butterfly.png,2,stimuli/red_flower.png,stimuli/green_flower.png,stimuli/blue_flower.png,stimuli/yellow_flower.png,down,stimuli/objects/firehydrant.jpg,1,99,stimuli/white_butterfly.png,0,6,2020-12-22_10h07.41.780,premce3DEU_ses-02_part-01_label-phase1,2020.1.2,Win32,60,,,,,,,,,,,,,,,,,,,,
,,down,1,0.563335,1,"[1,1,1,1,1,1,0,1,1,1,1,1,1,0]",1,0,20,20,12,1,stimuli/white_butterfly.png,stimuli/grey_butterfly.png,1,stimuli/yellow_flower.png,stimuli/red_flower.png,stimuli/blue_flower.png,stimuli/green_flower.png,down,stimuli/objects/toolbox02.jpg,1,99,stimuli/white_butterfly.png,1,6,2020-12-22_10h07.41.780,premce3DEU_ses-02_part-01_label-phase1,2020.1.2,Win32,60,,,,,,,,,,,,,,,,,,,,
,,,,,1,"[1,1,1,1,1,1,0,1,1,1,1,1,1,0,1]",1,,,,,,stimuli/white_butterfly.png,stimuli/grey_butterfly.png,1,stimuli/blue_flower.png,stimuli/red_flower.png,stimuli/green_flower.png,stimuli/yellow_flower.png,left,stimuli/objects/handbrush02.jpg,1,2,stimuli/white_butterfly.png,0,6,2020-12-22_10h07.41.780,premce3DEU_ses-02_part-01_label-phase1,2020.1.2,Win32,60,space,41.774,space,5.61758,left,1,0.585205,0,0,0,0,1,,,,,,,,
,,,,,0,"[1,1,1,1,1,1,0,1,1,1,1,1,1,0,1,1]",1,,,,,,stimuli/grey_butterfly.png,stimuli/white_butterfly.png,2,stimuli/yellow_flower.png,stimuli/green_flower.png,stimuli/blue_flower.png,stimuli/red_flower.png,up,stimuli/objects/fishskeleton.jpg,0,2,stimuli/white_butterfly.png,0,6,2020-12-22_10h07.41.780,premce3DEU_ses-02_part-01_label-phase1,2020.1.2,Win32,60,,,,,down,0,0.697215,0,1,1,1,1,,,,,,,,
,,,,,0,"[1,1,1,1,1,1,0,1,1,1,1,1,1,0,1,1]",1,,,,,,stimuli/white_butterfly.png,stimuli/grey_butterfly.png,1,stimuli/green_flower.png,stimuli/blue_flower.png,stimuli/red_flower.png,stimuli/yellow_flower.png,down,stimuli/objects/brownsugar.jpg,0,2,stimuli/white_butterfly.png,0,6,2020-12-22_10h07.41.780,premce3DEU_ses-02_part-01_label-phase1,2020.1.2,Win32,60,,,,,left,0,0.52908,0,2,2,2,1,,,,,,,,
,,,,,0,"[1,1,1,1,1,1,0,1,1,1,1,1,1,0,1,1]",1,,,,,,stimuli/grey_butterfly.png,stimuli/white_butterfly.png,1,stimuli/yellow_flower.png,stimuli/green_flower.png,stimuli/red_flower.png,stimuli/blue_flower.png,left,stimuli/objects/gong.jpg,0,2,stimuli/grey_butterfly.png,0,6,2020-12-22_10h07.41.780,premce3DEU_ses-02_part-01_label-phase1,2020.1.2,Win32,60,,,,,down,0,1.62971,0,3,3,3,1,,,,,,,,
,,,,,0,"[1,1,1,1,1,1,0,1,1,1,1,1,1,0,1,1]",0,,,,,,stimuli/grey_butterfly.png,stimuli/white_butterfly.png,2,stimuli/blue_flower.png,stimuli/red_flower.png,stimuli/yellow_flower.png,stimuli/green_flower.png,left,stimuli/objects/treadmill.jpg,1,2,stimuli/white_butterfly.png,0,6,2020-12-22_10h07.41.780,premce3DEU_ses-02_part-01_label-phase1,2020.1.2,Win32,60,,,,,down,0,1.16587,0,4,4,4,1,,,,,,,,
,,,,,1,"[1,1,1,1,1,1,0,1,1,1,1,1,1,0,1,1,0]",1,,,,,,stimuli/white_butterfly.png,stimuli/grey_butterfly.png,2,stimuli/yellow_flower.png,stimuli/green_flower.png,stimuli/red_flower.png,stimuli/blue_flower.png,down,stimuli/objects/shower.jpg,1,2,stimuli/grey_butterfly.png,0,6,2020-12-22_10h07.41.780,premce3DEU_ses-02_part-01_label-phase1,2020.1.2,Win32,60,,,,,down,1,0.68078,0,5,5,5,1,,,,,,,,
,,,,,1,"[1,1,1,1,1,1,0,1,1,1,1,1,1,0,1,1,0,1]",1,,,,,,stimuli/white_butterfly.png,stimuli/grey_butterfly.png,1,stimuli/green_flower.png,stimuli/yellow_flower.png,stimuli/red_flower.png,stimuli/blue_flower.png,right,stimuli/objects/skateboard.jpg,1,2,stimuli/white_butterfly.png,0,6,2020-12-22_10h07.41.780,premce3DEU_ses-02_part-01_label-phase1,2020.1.2,Win32,60,,,,,right,1,0.715225,0,6,6,6,1,,,,,,,,
,,,,,1,"[1,1,1,1,1,1,0,1,1,1,1,1,1,0,1,1,0,1,1]",1,,,,,,stimuli/white_butterfly.png,stimuli/grey_butterfly.png,1,stimuli/blue_flower.png,stimuli/yellow_flower.png,stimuli/green_flower.png,stimuli/red_flower.png,left,stimuli/objects/barrel01.jpg,1,2,stimuli/white_butterfly.png,0,6,2020-12-22_10h07.41.780,premce3DEU_ses-02_part-01_label-phase1,2020.1.2,Win32,60,,,,,left,1,0.68084,0,7,7,7,1,,,,,,,,
,,,,,1,"[1,1,1,1,1,1,0,1,1,1,1,1,1,0,1,1,0,1,1,1]",1,,,,,,stimuli/white_butterfly.png,stimuli/grey_butterfly.png,1,stimuli/red_flower.png,stimuli/yellow_flower.png,stimuli/green_flower.png,stimuli/blue_flower.png,right,stimuli/objects/xylophone.jpg,1,2,stimuli/white_butterfly.png,0,6,2020-12-22_10h07.41.780,premce3DEU_ses-02_part-01_label-phase1,2020.1.2,Win32,60,,,,,right,1,0.55274,0,8,8,8,1,,,,,,,,
,,,,,1,"[1,1,1,1,1,1,0,1,1,1,1,1,1,0,1,1,0,1,1,1,1]",1,,,,,,stimuli/grey_butterfly.png,stimuli/white_butterfly.png,1,stimuli/green_flower.png,stimuli/red_flower.png,stimuli/blue_flower.png,stimuli/yellow_flower.png,up,stimuli/objects/forklift.jpg,1,2,stimuli/grey_butterfly.png,0,6,2020-12-22_10h07.41.780,premce3DEU_ses-02_part-01_label-phase1,2020.1.2,Win32,60,,,,,up,1,1.583185,0,9,9,9,1,,,,,,,,
,,,,,1,"[1,1,1,1,1,1,0,1,1,1,1,1,1,0,1,1,0,1,1,1,1,1]",1,,,,,,stimuli/white_butterfly.png,stimuli/grey_butterfly.png,2,stimuli/green_flower.png,stimuli/blue_flower.png,stimuli/yellow_flower.png,stimuli/red_flower.png,right,stimuli/objects/scalpel.jpg,1,2,stimuli/grey_butterfly.png,0,6,2020-12-22_10h07.41.780,premce3DEU_ses-02_part-01_label-phase1,2020.1.2,Win32,60,,,,,right,1,0.612965,0,10,10,10,1,,,,,,,,
,,,,,1,"[1,1,1,1,1,1,0,1,1,1,1,1,1,0,1,1,0,1,1,1,1,1,1]",1,,,,,,stimuli/grey_butterfly.png,stimuli/white_butterfly.png,2,stimuli/yellow_flower.png,stimuli/blue_flower.png,stimuli/red_flower.png,stimuli/green_flower.png,up,stimuli/objects/sailboat.jpg,1,2,stimuli/white_butterfly.png,0,6,2020-12-22_10h07.41.780,premce3DEU_ses-02_part-01_label-phase1,2020.1.2,Win32,60,,,,,up,1,0.38022,0,11,11,11,1,,,,,,,,
,,,,,1,"[1,1,1,1,1,1,0,1,1,1,1,1,1,0,1,1,0,1,1,1,1,1,1,1]",1,,,,,,stimuli/grey_butterfly.png,stimuli/white_butterfly.png,2,stimuli/green_flower.png,stimuli/red_flower.png,stimuli/blue_flower.png,stimuli/yellow_flower.png,down,stimuli/objects/snowman.jpg,1,2,stimuli/white_butterfly.png,0,6,2020-12-22_10h07.41.780,premce3DEU_ses-02_part-01_label-phase1,2020.1.2,Win32,60,,,,,down,1,1.200795,0,12,12,12,1,,,,,,,,
,,,,,1,"[1,1,1,1,1,1,0,1,1,1,1,1,1,0,1,1,0,1,1,1,1,1,1,1,1]",1,,,,,,stimuli/grey_butterfly.png,stimuli/white_butterfly.png,1,stimuli/green_flower.png,stimuli/yellow_flower.png,stimuli/red_flower.png,stimuli/blue_flower.png,down,stimuli/objects/stool01.jpg,1,2,stimuli/grey_butterfly.png,0,6,2020-12-22_10h07.41.780,premce3DEU_ses-02_part-01_label-phase1,2020.1.2,Win32,60,,,,,down,1,0.75887,0,13,13,13,1,,,,,,,,
,,,,,1,"[1,1,1,1,1,1,0,1,1,1,1,1,1,0,1,1,0,1,1,1,1,1,1,1,1,1]",1,,,,,,stimuli/grey_butterfly.png,stimuli/white_butterfly.png,1,stimuli/red_flower.png,stimuli/green_flower.png,stimuli/blue_flower.png,stimuli/yellow_flower.png,left,stimuli/objects/butterfly1.jpg,1,2,stimuli/grey_butterfly.png,0,6,2020-12-22_10h07.41.780,premce3DEU_ses-02_part-01_label-phase1,2020.1.2,Win32,60,,,,,left,1,0.91799,0,14,14,14,1,,,,,,,,
,,,,,0,"[1,1,1,1,1,1,0,1,1,1,1,1,1,0,1,1,0,1,1,1,1,1,1,1,1,1,1]",1,,,,,,stimuli/white_butterfly.png,stimuli/grey_butterfly.png,2,stimuli/green_flower.png,stimuli/blue_flower.png,stimuli/red_flower.png,stimuli/yellow_flower.png,left,stimuli/objects/wheelchair.jpg,0,2,stimuli/grey_butterfly.png,0,6,2020-12-22_10h07.41.780,premce3DEU_ses-02_part-01_label-phase1,2020.1.2,Win32,60,,,,,down,0,0.83405,0,15,15,15,1,,,,,,,,
,,,,,1,"[1,1,1,1,1,1,0,1,1,1,1,1,1,0,1,1,0,1,1,1,1,1,1,1,1,1,1]",1,,,,,,stimuli/grey_butterfly.png,stimuli/white_butterfly.png,2,stimuli/blue_flower.png,stimuli/green_flower.png,stimuli/red_flower.png,stimuli/yellow_flower.png,left,stimuli/objects/desktopcomputer.jpg,1,2,stimuli/white_butterfly.png,0,6,2020-12-22_10h07.41.780,premce3DEU_ses-02_part-01_label-phase1,2020.1.2,Win32,60,,,,,left,1,0.83696,0,16,16,16,1,,,,,,,,
,,,,,1,"[1,1,1,1,1,1,0,1,1,1,1,1,1,0,1,1,0,1,1,1,1,1,1,1,1,1,1,1]",1,,,,,,stimuli/grey_butterfly.png,stimuli/white_butterfly.png,2,stimuli/yellow_flower.png,stimuli/red_flower.png,stimuli/green_flower.png,stimuli/blue_flower.png,right,stimuli/objects/triangle.jpg,1,2,stimuli/white_butterfly.png,0,6,2020-12-22_10h07.41.780,premce3DEU_ses-02_part-01_label-phase1,2020.1.2,Win32,60,,,,,right,1,0.5124,0,17,17,17,1,,,,,,,,
,,,,,0,"[1,1,1,1,1,1,0,1,1,1,1,1,1,0,1,1,0,1,1,1,1,1,1,1,1,1,1,1,1]",0,,,,,,stimuli/white_butterfly.png,stimuli/grey_butterfly.png,1,stimuli/red_flower.png,stimuli/blue_flower.png,stimuli/yellow_flower.png,stimuli/green_flower.png,up,stimuli/objects/dartboard.jpg,1,2,stimuli/white_butterfly.png,0,6,2020-12-22_10h07.41.780,premce3DEU_ses-02_part-01_label-phase1,2020.1.2,Win32,60,,,,,right,0,0.65883,0,18,18,18,1,,,,,,,,
,,,,,0,"[1,1,1,1,1,1,0,1,1,1,1,1,1,0,1,1,0,1,1,1,1,1,1,1,1,1,1,1,1,0]",0,,,,,,stimuli/grey_butterfly.png,stimuli/white_butterfly.png,1,stimuli/red_flower.png,stimuli/blue_flower.png,stimuli/green_flower.png,stimuli/yellow_flower.png,left,stimuli/objects/electricguitar01.jpg,1,2,stimuli/grey_butterfly.png,0,6,2020-12-22_10h07.41.780,premce3DEU_ses-02_part-01_label-phase1,2020.1.2,Win32,60,,,,,up,0,1.74411,0,19,19,19,1,,,,,,,,
,,,,,0,"[1,1,1,1,1,1,0,1,1,1,1,1,1,0,1,1,0,1,1,1,1,1,1,1,1,1,1,1,1,0,0]",0,,,,,,stimuli/white_butterfly.png,stimuli/grey_butterfly.png,2,stimuli/blue_flower.png,stimuli/green_flower.png,stimuli/yellow_flower.png,stimuli/red_flower.png,left,stimuli/objects/pumpkin.jpg,0,2,stimuli/grey_butterfly.png,0,6,2020-12-22_10h07.41.780,premce3DEU_ses-02_part-01_label-phase1,2020.1.2,Win32,60,,,,,right,0,0.781035,0,20,20,20,1,,,,,,,,
,,,,,1,"[1,1,1,1,1,1,0,1,1,1,1,1,1,0,1,1,0,1,1,1,1,1,1,1,1,1,1,1,1,0,0]",1,,,,,,stimuli/grey_butterfly.png,stimuli/white_butterfly.png,1,stimuli/green_flower.png,stimuli/blue_flower.png,stimuli/red_flower.png,stimuli/yellow_flower.png,down,stimuli/objects/doubledoors.jpg,1,2,stimuli/grey_butterfly.png,1,6,2020-12-22_10h07.41.780,premce3DEU_ses-02_part-01_label-phase1,2020.1.2,Win32,60,,,,,down,1,1.977275,0,21,21,21,1,,,,,,,,
,,,,,1,"[1,1,1,1,1,1,0,1,1,1,1,1,1,0,1,1,0,1,1,1,1,1,1,1,1,1,1,1,1,0,0,1]",1,,,,,,stimuli/white_butterfly.png,stimuli/grey_butterfly.png,2,stimuli/yellow_flower.png,stimuli/red_flower.png,stimuli/green_flower.png,stimuli/blue_flower.png,up,stimuli/objects/waterfountain02.jpg,1,2,stimuli/grey_butterfly.png,1,6,2020-12-22_10h07.41.780,premce3DEU_ses-02_part-01_label-phase1,2020.1.2,Win32,60,,,,,up,1,0.689565,0,22,22,22,1,,,,,,,,
,,,,,0,"[1,1,1,1,1,1,0,1,1,1,1,1,1,0,1,1,0,1,1,1,1,1,1,1,1,1,1,1,1,0,0,1,1]",0,,,,,,stimuli/grey_butterfly.png,stimuli/white_butterfly.png,1,stimuli/red_flower.png,stimuli/yellow_flower.png,stimuli/blue_flower.png,stimuli/green_flower.png,left,stimuli/objects/skiboot01a.jpg,1,2,stimuli/grey_butterfly.png,1,6,2020-12-22_10h07.41.780,premce3DEU_ses-02_part-01_label-phase1,2020.1.2,Win32,60,,,,,down,0,0.77296,0,23,23,23,1,,,,,,,,
,,,,,0,"[1,1,1,1,1,1,0,1,1,1,1,1,1,0,1,1,0,1,1,1,1,1,1,1,1,1,1,1,1,0,0,1,1,0]",0,,,,,,stimuli/grey_butterfly.png,stimuli/white_butterfly.png,2,stimuli/red_flower.png,stimuli/green_flower.png,stimuli/yellow_flower.png,stimuli/blue_flower.png,down,stimuli/objects/coffeemaker.jpg,0,2,stimuli/white_butterfly.png,1,6,2020-12-22_10h07.41.780,premce3DEU_ses-02_part-01_label-phase1,2020.1.2,Win32,60,,,,,right,0,0.49468,0,24,24,24,1,,,,,,,,
,,,,,1,"[1,1,1,1,1,1,0,1,1,1,1,1,1,0,1,1,0,1,1,1,1,1,1,1,1,1,1,1,1,0,0,1,1,0]",1,,,,,,stimuli/white_butterfly.png,stimuli/grey_butterfly.png,2,stimuli/red_flower.png,stimuli/blue_flower.png,stimuli/yellow_flower.png,stimuli/green_flower.png,left,stimuli/objects/rockingchair.jpg,1,2,stimuli/grey_butterfly.png,1,6,2020-12-22_10h07.41.780,premce3DEU_ses-02_part-01_label-phase1,2020.1.2,Win32,60,,,,,left,1,0.62615,0,25,25,25,1,,,,,,,,
,,,,,0,"[1,1,1,1,1,1,0,1,1,1,1,1,1,0,1,1,0,1,1,1,1,1,1,1,1,1,1,1,1,0,0,1,1,0,1]",0,,,,,,stimuli/grey_butterfly.png,stimuli/white_butterfly.png,1,stimuli/yellow_flower.png,stimuli/blue_flower.png,stimuli/green_flower.png,stimuli/red_flower.png,right,stimuli/objects/trophy01.jpg,1,2,stimuli/grey_butterfly.png,1,6,2020-12-22_10h07.41.780,premce3DEU_ses-02_part-01_label-phase1,2020.1.2,Win32,60,,,,,up,0,1.21458,0,26,26,26,1,,,,,,,,
,,,,,1,"[1,1,1,1,1,1,0,1,1,1,1,1,1,0,1,1,0,1,1,1,1,1,1,1,1,1,1,1,1,0,0,1,1,0,1,0]",1,,,,,,stimuli/white_butterfly.png,stimuli/grey_butterfly.png,2,stimuli/red_flower.png,stimuli/yellow_flower.png,stimuli/green_flower.png,stimuli/blue_flower.png,left,stimuli/objects/fridge.jpg,1,2,stimuli/grey_butterfly.png,1,6,2020-12-22_10h07.41.780,premce3DEU_ses-02_part-01_label-phase1,2020.1.2,Win32,60,,,,,left,1,0.567235,0,27,27,27,1,,,,,,,,
,,,,,1,"[1,1,1,1,1,1,0,1,1,1,1,1,1,0,1,1,0,1,1,1,1,1,1,1,1,1,1,1,1,0,0,1,1,0,1,0,1]",1,,,,,,stimuli/grey_butterfly.png,stimuli/white_butterfly.png,2,stimuli/blue_flower.png,stimuli/red_flower.png,stimuli/green_flower.png,stimuli/yellow_flower.png,left,stimuli/objects/filingcabinet.jpg,1,2,stimuli/white_butterfly.png,1,6,2020-12-22_10h07.41.780,premce3DEU_ses-02_part-01_label-phase1,2020.1.2,Win32,60,,,,,left,1,0.74381,0,28,28,28,1,,,,,,,,
,,,,,1,"[1,1,1,1,1,1,0,1,1,1,1,1,1,0,1,1,0,1,1,1,1,1,1,1,1,1,1,1,1,0,0,1,1,0,1,0,1,1]",1,,,,,,stimuli/grey_butterfly.png,stimuli/white_butterfly.png,1,stimuli/green_flower.png,stimuli/red_flower.png,stimuli/yellow_flower.png,stimuli/blue_flower.png,up,stimuli/objects/crown.jpg,1,2,stimuli/grey_butterfly.png,1,6,2020-12-22_10h07.41.780,premce3DEU_ses-02_part-01_label-phase1,2020.1.2,Win32,60,,,,,up,1,0.488875,0,29,29,29,1,,,,,,,,
,,,,,1,"[1,1,1,1,1,1,0,1,1,1,1,1,1,0,1,1,0,1,1,1,1,1,1,1,1,1,1,1,1,0,0,1,1,0,1,0,1,1,1]",1,,,,,,stimuli/white_butterfly.png,stimuli/grey_butterfly.png,1,stimuli/green_flower.png,stimuli/red_flower.png,stimuli/yellow_flower.png,stimuli/blue_flower.png,right,stimuli/objects/file.jpg,1,2,stimuli/white_butterfly.png,1,6,2020-12-22_10h07.41.780,premce3DEU_ses-02_part-01_label-phase1,2020.1.2,Win32,60,,,,,right,1,0.526155,0,30,30,30,1,,,,,,,,
,,,,,1,"[1,1,1,1,1,1,0,1,1,1,1,1,1,0,1,1,0,1,1,1,1,1,1,1,1,1,1,1,1,0,0,1,1,0,1,0,1,1,1,1]",1,,,,,,stimuli/white_butterfly.png,stimuli/grey_butterfly.png,2,stimuli/yellow_flower.png,stimuli/red_flower.png,stimuli/blue_flower.png,stimuli/green_flower.png,up,stimuli/objects/blender.jpg,1,2,stimuli/grey_butterfly.png,1,6,2020-12-22_10h07.41.780,premce3DEU_ses-02_part-01_label-phase1,2020.1.2,Win32,60,,,,,up,1,0.341255,0,31,31,31,1,,,,,,,,
,,,,,1,"[1,1,1,1,1,1,0,1,1,1,1,1,1,0,1,1,0,1,1,1,1,1,1,1,1,1,1,1,1,0,0,1,1,0,1,0,1,1,1,1,1]",1,,,,,,stimuli/grey_butterfly.png,stimuli/white_butterfly.png,2,stimuli/blue_flower.png,stimuli/yellow_flower.png,stimuli/green_flower.png,stimuli/red_flower.png,left,stimuli/objects/sandcastle.jpg,1,2,stimuli/white_butterfly.png,1,6,2020-12-22_10h07.41.780,premce3DEU_ses-02_part-01_label-phase1,2020.1.2,Win32,60,,,,,left,1,0.72576,0,32,32,32,1,,,,,,,,
,,,,,0,"[1,1,1,1,1,1,0,1,1,1,1,1,1,0,1,1,0,1,1,1,1,1,1,1,1,1,1,1,1,0,0,1,1,0,1,0,1,1,1,1,1,1]",0,,,,,,stimuli/grey_butterfly.png,stimuli/white_butterfly.png,1,stimuli/red_flower.png,stimuli/blue_flower.png,stimuli/yellow_flower.png,stimuli/green_flower.png,left,stimuli/objects/crab01.jpg,1,2,stimuli/grey_butterfly.png,1,6,2020-12-22_10h07.41.780,premce3DEU_ses-02_part-01_label-phase1,2020.1.2,Win32,60,,,,,up,0,0.53792,0,33,33,33,1,,,,,,,,
,,,,,1,"[1,1,1,1,1,1,0,1,1,1,1,1,1,0,1,1,0,1,1,1,1,1,1,1,1,1,1,1,1,0,0,1,1,0,1,0,1,1,1,1,1,1,0]",1,,,,,,stimuli/grey_butterfly.png,stimuli/white_butterfly.png,2,stimuli/green_flower.png,stimuli/red_flower.png,stimuli/yellow_flower.png,stimuli/blue_flower.png,right,stimuli/objects/butterfly1.jpg,1,2,stimuli/white_butterfly.png,1,6,2020-12-22_10h07.41.780,premce3DEU_ses-02_part-01_label-phase1,2020.1.2,Win32,60,,,,,right,1,0.50973,0,34,34,34,1,,,,,,,,
,,,,,1,"[1,1,1,1,1,1,0,1,1,1,1,1,1,0,1,1,0,1,1,1,1,1,1,1,1,1,1,1,1,0,0,1,1,0,1,0,1,1,1,1,1,1,0,1]",1,,,,,,stimuli/grey_butterfly.png,stimuli/white_butterfly.png,1,stimuli/green_flower.png,stimuli/yellow_flower.png,stimuli/blue_flower.png,stimuli/red_flower.png,right,stimuli/objects/doghouse.jpg,1,2,stimuli/grey_butterfly.png,1,6,2020-12-22_10h07.41.780,premce3DEU_ses-02_part-01_label-phase1,2020.1.2,Win32,60,,,,,right,1,0.539045,0,35,35,35,1,,,,,,,,
,,,,,1,"[1,1,1,1,1,1,0,1,1,1,1,1,1,0,1,1,0,1,1,1,1,1,1,1,1,1,1,1,1,0,0,1,1,0,1,0,1,1,1,1,1,1,0,1,1]",1,,,,,,stimuli/white_butterfly.png,stimuli/grey_butterfly.png,1,stimuli/blue_flower.png,stimuli/red_flower.png,stimuli/yellow_flower.png,stimuli/green_flower.png,left,stimuli/objects/chime.jpg,1,2,stimuli/white_butterfly.png,1,6,2020-12-22_10h07.41.780,premce3DEU_ses-02_part-01_label-phase1,2020.1.2,Win32,60,,,,,left,1,0.72027,0,36,36,36,1,,,,,,,,
,,,,,1,"[1,1,1,1,1,1,0,1,1,1,1,1,1,0,1,1,0,1,1,1,1,1,1,1,1,1,1,1,1,0,0,1,1,0,1,0,1,1,1,1,1,1,0,1,1,1]",1,,,,,,stimuli/grey_butterfly.png,stimuli/white_butterfly.png,2,stimuli/green_flower.png,stimuli/yellow_flower.png,stimuli/blue_flower.png,stimuli/red_flower.png,down,stimuli/objects/contactlens.jpg,1,2,stimuli/white_butterfly.png,1,6,2020-12-22_10h07.41.780,premce3DEU_ses-02_part-01_label-phase1,2020.1.2,Win32,60,,,,,down,1,0.9666,0,37,37,37,1,,,,,,,,
,,,,,1,"[1,1,1,1,1,1,0,1,1,1,1,1,1,0,1,1,0,1,1,1,1,1,1,1,1,1,1,1,1,0,0,1,1,0,1,0,1,1,1,1,1,1,0,1,1,1,1]",1,,,,,,stimuli/grey_butterfly.png,stimuli/white_butterfly.png,2,stimuli/green_flower.png,stimuli/yellow_flower.png,stimuli/red_flower.png,stimuli/blue_flower.png,right,stimuli/objects/snowglobe.jpg,1,2,stimuli/white_butterfly.png,1,6,2020-12-22_10h07.41.780,premce3DEU_ses-02_part-01_label-phase1,2020.1.2,Win32,60,,,,,right,1,0.756575,0,38,38,38,1,,,,,,,,
,,,,,1,"[1,1,1,1,1,1,0,1,1,1,1,1,1,0,1,1,0,1,1,1,1,1,1,1,1,1,1,1,1,0,0,1,1,0,1,0,1,1,1,1,1,1,0,1,1,1,1,1]",1,,,,,,stimuli/white_butterfly.png,stimuli/grey_butterfly.png,2,stimuli/green_flower.png,stimuli/red_flower.png,stimuli/blue_flower.png,stimuli/yellow_flower.png,up,stimuli/objects/beerbottle.jpg,1,2,stimuli/grey_butterfly.png,1,6,2020-12-22_10h07.41.780,premce3DEU_ses-02_part-01_label-phase1,2020.1.2,Win32,60,,,,,up,1,0.48525,0,39,39,39,1,,,,,,,,
,,,,,0,"[1,1,1,1,1,1,0,1,1,1,1,1,1,0,1,1,0,1,1,1,1,1,1,1,1,1,1,1,1,0,0,1,1,0,1,0,1,1,1,1,1,1,0,1,1,1,1,1,1]",0,,,,,,stimuli/grey_butterfly.png,stimuli/white_butterfly.png,1,stimuli/blue_flower.png,stimuli/yellow_flower.png,stimuli/green_flower.png,stimuli/red_flower.png,right,stimuli/objects/salmon.jpg,1,2,stimuli/grey_butterfly.png,1,6,2020-12-22_10h07.41.780,premce3DEU_ses-02_part-01_label-phase1,2020.1.2,Win32,60,,,,,left,0,0.62511,0,40,40,40,1,,,,,,,,
,,,,,1,"[1,1,1,1,1,1,0,1,1,1,1,1,1,0,1,1,0,1,1,1,1,1,1,1,1,1,1,1,1,0,0,1,1,0,1,0,1,1,1,1,1,1,0,1,1,1,1,1,1,0]",1,,,,,,stimuli/grey_butterfly.png,stimuli/white_butterfly.png,2,stimuli/green_flower.png,stimuli/blue_flower.png,stimuli/red_flower.png,stimuli/yellow_flower.png,up,stimuli/objects/microwave.jpg,1,2,stimuli/white_butterfly.png,1,6,2020-12-22_10h07.41.780,premce3DEU_ses-02_part-01_label-phase1,2020.1.2,Win32,60,,,,,up,1,1.099245,0,41,41,41,1,,,,,,,,
,,,,,,,,,,,,,,,,,,,,,,,,,,6,2020-12-22_10h07.41.780,premce3DEU_ses-02_part-01_label-phase1,2020.1.2,Win32,60,,,,,,,,,,,,,0,0,0,0,1,condition_files/tasklistAplus3.csv,,
,,,,,0,"[1,1,1,1,1,1,0,1,1,1,1,1,1,0,1,1,0,1,1,1,1,1,1,1,1,1,1,1,1,0,0,1,1,0,1,0,1,1,1,1,1,1,0,1,1,1,1,1,1,0,1]",0,,,,,,stimuli/grey_butterfly.png,stimuli/white_butterfly.png,2,stimuli/yellow_flower.png,stimuli/blue_flower.png,stimuli/red_flower.png,stimuli/green_flower.png,right,stimuli/objects/whiteout.jpg,1,3,stimuli/white_butterfly.png,0,6,2020-12-22_10h07.41.780,premce3DEU_ses-02_part-01_label-phase1,2020.1.2,Win32,60,,,,,up,0,0.43001,0,0,0,0,1,,,,,,,,
,,,,,0,"[1,1,1,1,1,1,0,1,1,1,1,1,1,0,1,1,0,1,1,1,1,1,1,1,1,1,1,1,1,0,0,1,1,0,1,0,1,1,1,1,1,1,0,1,1,1,1,1,1,0,1,0]",0,,,,,,stimuli/white_butterfly.png,stimuli/grey_butterfly.png,1,stimuli/red_flower.png,stimuli/blue_flower.png,stimuli/yellow_flower.png,stimuli/green_flower.png,right,stimuli/objects/dromedary.jpg,1,3,stimuli/white_butterfly.png,0,6,2020-12-22_10h07.41.780,premce3DEU_ses-02_part-01_label-phase1,2020.1.2,Win32,60,,,,,up,0,0.654865,0,1,1,1,1,,,,,,,,
,,,,,0,"[1,1,1,1,1,1,0,1,1,1,1,1,1,0,1,1,0,1,1,1,1,1,1,1,1,1,1,1,1,0,0,1,1,0,1,0,1,1,1,1,1,1,0,1,1,1,1,1,1,0,1,0,0]",0,,,,,,stimuli/white_butterfly.png,stimuli/grey_butterfly.png,2,stimuli/green_flower.png,stimuli/yellow_flower.png,stimuli/blue_flower.png,stimuli/red_flower.png,up,stimuli/objects/cruiseship.jpg,1,3,stimuli/grey_butterfly.png,0,6,2020-12-22_10h07.41.780,premce3DEU_ses-02_part-01_label-phase1,2020.1.2,Win32,60,,,,,right,0,0.52565,0,2,2,2,1,,,,,,,,
,,,,,1,"[1,1,1,1,1,1,0,1,1,1,1,1,1,0,1,1,0,1,1,1,1,1,1,1,1,1,1,1,1,0,0,1,1,0,1,0,1,1,1,1,1,1,0,1,1,1,1,1,1,0,1,0,0,0]",1,,,,,,stimuli/white_butterfly.png,stimuli/grey_butterfly.png,1,stimuli/blue_flower.png,stimuli/red_flower.png,stimuli/yellow_flower.png,stimuli/green_flower.png,right,stimuli/objects/rollerblade.jpg,1,3,stimuli/white_butterfly.png,0,6,2020-12-22_10h07.41.780,premce3DEU_ses-02_part-01_label-phase1,2020.1.2,Win32,60,,,,,right,1,0.50781,0,3,3,3,1,,,,,,,,
,,,,,0,"[1,1,1,1,1,1,0,1,1,1,1,1,1,0,1,1,0,1,1,1,1,1,1,1,1,1,1,1,1,0,0,1,1,0,1,0,1,1,1,1,1,1,0,1,1,1,1,1,1,0,1,0,0,0,1]",1,,,,,,stimuli/white_butterfly.png,stimuli/grey_butterfly.png,1,stimuli/yellow_flower.png,stimuli/green_flower.png,stimuli/blue_flower.png,stimuli/red_flower.png,left,stimuli/objects/moon.jpg,0,3,stimuli/white_butterfly.png,0,6,2020-12-22_10h07.41.780,premce3DEU_ses-02_part-01_label-phase1,2020.1.2,Win32,60,,,,,up,0,0.563185,0,4,4,4,1,,,,,,,,
,,,,,1,"[1,1,1,1,1,1,0,1,1,1,1,1,1,0,1,1,0,1,1,1,1,1,1,1,1,1,1,1,1,0,0,1,1,0,1,0,1,1,1,1,1,1,0,1,1,1,1,1,1,0,1,0,0,0,1]",1,,,,,,stimuli/white_butterfly.png,stimuli/grey_butterfly.png,2,stimuli/yellow_flower.png,stimuli/red_flower.png,stimuli/blue_flower.png,stimuli/green_flower.png,left,stimuli/objects/windshieldwiper02.jpg,1,3,stimuli/grey_butterfly.png,0,6,2020-12-22_10h07.41.780,premce3DEU_ses-02_part-01_label-phase1,2020.1.2,Win32,60,,,,,left,1,0.739235,0,5,5,5,1,,,,,,,,
,,,,,0,"[1,1,1,1,1,1,0,1,1,1,1,1,1,0,1,1,0,1,1,1,1,1,1,1,1,1,1,1,1,0,0,1,1,0,1,0,1,1,1,1,1,1,0,1,1,1,1,1,1,0,1,0,0,0,1,1]",0,,,,,,stimuli/grey_butterfly.png,stimuli/white_butterfly.png,2,stimuli/blue_flower.png,stimuli/yellow_flower.png,stimuli/green_flower.png,stimuli/red_flower.png,down,stimuli/objects/candycane01a.jpg,1,3,stimuli/white_butterfly.png,0,6,2020-12-22_10h07.41.780,premce3DEU_ses-02_part-01_label-phase1,2020.1.2,Win32,60,,,,,,0,,0,6,6,6,1,,,,,,,,
,,,,,1,"[1,1,1,1,1,1,0,1,1,1,1,1,1,0,1,1,0,1,1,1,1,1,1,1,1,1,1,1,1,0,0,1,1,0,1,0,1,1,1,1,1,1,0,1,1,1,1,1,1,0,1,0,0,0,1,1,0]",1,,,,,,stimuli/grey_butterfly.png,stimuli/white_butterfly.png,2,stimuli/blue_flower.png,stimuli/green_flower.png,stimuli/yellow_flower.png,stimuli/red_flower.png,up,stimuli/objects/canoepaddle02.jpg,1,3,stimuli/white_butterfly.png,0,6,2020-12-22_10h07.41.780,premce3DEU_ses-02_part-01_label-phase1,2020.1.2,Win32,60,,,,,up,1,0.708015,0,7,7,7,1,,,,,,,,
,,,,,1,"[1,1,1,1,1,1,0,1,1,1,1,1,1,0,1,1,0,1,1,1,1,1,1,1,1,1,1,1,1,0,0,1,1,0,1,0,1,1,1,1,1,1,0,1,1,1,1,1,1,0,1,0,0,0,1,1,0,1]",1,,,,,,stimuli/white_butterfly.png,stimuli/grey_butterfly.png,2,stimuli/blue_flower.png,stimuli/green_flower.png,stimuli/red_flower.png,stimuli/yellow_flower.png,right,stimuli/objects/hotdog.jpg,1,3,stimuli/grey_butterfly.png,0,6,2020-12-22_10h07.41.780,premce3DEU_ses-02_part-01_label-phase1,2020.1.2,Win32,60,,,,,right,1,0.59187,0,8,8,8,1,,,,,,,,
,,,,,1,"[1,1,1,1,1,1,0,1,1,1,1,1,1,0,1,1,0,1,1,1,1,1,1,1,1,1,1,1,1,0,0,1,1,0,1,0,1,1,1,1,1,1,0,1,1,1,1,1,1,0,1,0,0,0,1,1,0,1,1]",1,,,,,,stimuli/grey_butterfly.png,stimuli/white_butterfly.png,2,stimuli/green_flower.png,stimuli/blue_flower.png,stimuli/yellow_flower.png,stimuli/red_flower.png,left,stimuli/objects/cactus.jpg,1,3,stimuli/white_butterfly.png,0,6,2020-12-22_10h07.41.780,premce3DEU_ses-02_part-01_label-phase1,2020.1.2,Win32,60,,,,,left,1,0.59789,0,9,9,9,1,,,,,,,,
,,,,,1,"[1,1,1,1,1,1,0,1,1,1,1,1,1,0,1,1,0,1,1,1,1,1,1,1,1,1,1,1,1,0,0,1,1,0,1,0,1,1,1,1,1,1,0,1,1,1,1,1,1,0,1,0,0,0,1,1,0,1,1,1]",1,,,,,,stimuli/white_butterfly.png,stimuli/grey_butterfly.png,2,stimuli/red_flower.png,stimuli/blue_flower.png,stimuli/yellow_flower.png,stimuli/green_flower.png,down,stimuli/objects/bookshelf.jpg,1,3,stimuli/grey_butterfly.png,0,6,2020-12-22_10h07.41.780,premce3DEU_ses-02_part-01_label-phase1,2020.1.2,Win32,60,,,,,down,1,0.6288,0,10,10,10,1,,,,,,,,
,,,,,1,"[1,1,1,1,1,1,0,1,1,1,1,1,1,0,1,1,0,1,1,1,1,1,1,1,1,1,1,1,1,0,0,1,1,0,1,0,1,1,1,1,1,1,0,1,1,1,1,1,1,0,1,0,0,0,1,1,0,1,1,1,1]",1,,,,,,stimuli/grey_butterfly.png,stimuli/white_butterfly.png,2,stimuli/yellow_flower.png,stimuli/red_flower.png,stimuli/green_flower.png,stimuli/blue_flower.png,down,stimuli/objects/bathtub.jpg,1,3,stimuli/white_butterfly.png,0,6,2020-12-22_10h07.41.780,premce3DEU_ses-02_part-01_label-phase1,2020.1.2,Win32,60,,,,,down,1,0.808495,0,11,11,11,1,,,,,,,,
,,,,,1,"[1,1,1,1,1,1,0,1,1,1,1,1,1,0,1,1,0,1,1,1,1,1,1,1,1,1,1,1,1,0,0,1,1,0,1,0,1,1,1,1,1,1,0,1,1,1,1,1,1,0,1,0,0,0,1,1,0,1,1,1,1,1]",1,,,,,,stimuli/white_butterfly.png,stimuli/grey_butterfly.png,2,stimuli/yellow_flower.png,stimuli/red_flower.png,stimuli/green_flower.png,stimuli/blue_flower.png,left,stimuli/objects/spicerack.jpg,1,3,stimuli/grey_butterfly.png,0,6,2020-12-22_10h07.41.780,premce3DEU_ses-02_part-01_label-phase1,2020.1.2,Win32,60,,,,,left,1,0.42078,0,12,12,12,1,,,,,,,,
,,,,,1,"[1,1,1,1,1,1,0,1,1,1,1,1,1,0,1,1,0,1,1,1,1,1,1,1,1,1,1,1,1,0,0,1,1,0,1,0,1,1,1,1,1,1,0,1,1,1,1,1,1,0,1,0,0,0,1,1,0,1,1,1,1,1,1]",1,,,,,,stimuli/grey_butterfly.png,stimuli/white_butterfly.png,1,stimuli/yellow_flower.png,stimuli/blue_flower.png,stimuli/red_flower.png,stimuli/green_flower.png,left,stimuli/objects/stepladder.jpg,1,3,stimuli/grey_butterfly.png,0,6,2020-12-22_10h07.41.780,premce3DEU_ses-02_part-01_label-phase1,2020.1.2,Win32,60,,,,,left,1,0.51175,0,13,13,13,1,,,,,,,,
,,,,,1,"[1,1,1,1,1,1,0,1,1,1,1,1,1,0,1,1,0,1,1,1,1,1,1,1,1,1,1,1,1,0,0,1,1,0,1,0,1,1,1,1,1,1,0,1,1,1,1,1,1,0,1,0,0,0,1,1,0,1,1,1,1,1,1,1]",1,,,,,,stimuli/white_butterfly.png,stimuli/grey_butterfly.png,2,stimuli/blue_flower.png,stimuli/red_flower.png,stimuli/green_flower.png,stimuli/yellow_flower.png,right,stimuli/objects/snowshovel.jpg,1,3,stimuli/grey_butterfly.png,0,6,2020-12-22_10h07.41.780,premce3DEU_ses-02_part-01_label-phase1,2020.1.2,Win32,60,,,,,right,1,0.49272,0,14,14,14,1,,,,,,,,
,,,,,1,"[1,1,1,1,1,1,0,1,1,1,1,1,1,0,1,1,0,1,1,1,1,1,1,1,1,1,1,1,1,0,0,1,1,0,1,0,1,1,1,1,1,1,0,1,1,1,1,1,1,0,1,0,0,0,1,1,0,1,1,1,1,1,1,1,1]",1,,,,,,stimuli/grey_butterfly.png,stimuli/white_butterfly.png,2,stimuli/green_flower.png,stimuli/yellow_flower.png,stimuli/blue_flower.png,stimuli/red_flower.png,left,stimuli/objects/seaturtle.jpg,1,3,stimuli/white_butterfly.png,0,6,2020-12-22_10h07.41.780,premce3DEU_ses-02_part-01_label-phase1,2020.1.2,Win32,60,,,,,left,1,0.794625,0,15,15,15,1,,,,,,,,
,,,,,1,"[1,1,1,1,1,1,0,1,1,1,1,1,1,0,1,1,0,1,1,1,1,1,1,1,1,1,1,1,1,0,0,1,1,0,1,0,1,1,1,1,1,1,0,1,1,1,1,1,1,0,1,0,0,0,1,1,0,1,1,1,1,1,1,1,1,1]",1,,,,,,stimuli/white_butterfly.png,stimuli/grey_butterfly.png,1,stimuli/green_flower.png,stimuli/red_flower.png,stimuli/yellow_flower.png,stimuli/blue_flower.png,left,stimuli/objects/winniethepooh.jpg,1,3,stimuli/white_butterfly.png,0,6,2020-12-22_10h07.41.780,premce3DEU_ses-02_part-01_label-phase1,2020.1.2,Win32,60,,,,,left,1,1.533125,0,16,16,16,1,,,,,,,,
,,,,,0,"[1,1,1,1,1,1,0,1,1,1,1,1,1,0,1,1,0,1,1,1,1,1,1,1,1,1,1,1,1,0,0,1,1,0,1,0,1,1,1,1,1,1,0,1,1,1,1,1,1,0,1,0,0,0,1,1,0,1,1,1,1,1,1,1,1,1,1]",1,,,,,,stimuli/grey_butterfly.png,stimuli/white_butterfly.png,1,stimuli/blue_flower.png,stimuli/yellow_flower.png,stimuli/red_flower.png,stimuli/green_flower.png,down,stimuli/objects/butterfly4.jpg,0,3,stimuli/grey_butterfly.png,0,6,2020-12-22_10h07.41.780,premce3DEU_ses-02_part-01_label-phase1,2020.1.2,Win32,60,,,,,up,0,1.535565,0,17,17,17,1,,,,,,,,
,,,,,0,"[1,1,1,1,1,1,0,1,1,1,1,1,1,0,1,1,0,1,1,1,1,1,1,1,1,1,1,1,1,0,0,1,1,0,1,0,1,1,1,1,1,1,0,1,1,1,1,1,1,0,1,0,0,0,1,1,0,1,1,1,1,1,1,1,1,1,1]",0,,,,,,stimuli/grey_butterfly.png,stimuli/white_butterfly.png,2,stimuli/green_flower.png,stimuli/red_flower.png,stimuli/yellow_flower.png,stimuli/blue_flower.png,left,stimuli/objects/witchhat.jpg,1,3,stimuli/white_butterfly.png,0,6,2020-12-22_10h07.41.780,premce3DEU_ses-02_part-01_label-phase1,2020.1.2,Win32,60,,,,,right,0,1.06418,0,18,18,18,1,,,,,,,,
,,,,,0,"[1,1,1,1,1,1,0,1,1,1,1,1,1,0,1,1,0,1,1,1,1,1,1,1,1,1,1,1,1,0,0,1,1,0,1,0,1,1,1,1,1,1,0,1,1,1,1,1,1,0,1,0,0,0,1,1,0,1,1,1,1,1,1,1,1,1,1,0]",0,,,,,,stimuli/grey_butterfly.png,stimuli/white_butterfly.png,1,stimuli/yellow_flower.png,stimuli/red_flower.png,stimuli/green_flower.png,stimuli/blue_flower.png,left,stimuli/objects/granolabar01.jpg,1,3,stimuli/grey_butterfly.png,0,6,2020-12-22_10h07.41.780,premce3DEU_ses-02_part-01_label-phase1,2020.1.2,Win32,60,,,,,up,0,0.77762,0,19,19,19,1,,,,,,,,
,,,,,0,"[1,1,1,1,1,1,0,1,1,1,1,1,1,0,1,1,0,1,1,1,1,1,1,1,1,1,1,1,1,0,0,1,1,0,1,0,1,1,1,1,1,1,0,1,1,1,1,1,1,0,1,0,0,0,1,1,0,1,1,1,1,1,1,1,1,1,1,0,0]",0,,,,,,stimuli/white_butterfly.png,stimuli/grey_butterfly.png,1,stimuli/red_flower.png,stimuli/green_flower.png,stimuli/yellow_flower.png,stimuli/blue_flower.png,up,stimuli/objects/shovel01.jpg,1,3,stimuli/white_butterfly.png,0,6,2020-12-22_10h07.41.780,premce3DEU_ses-02_part-01_label-phase1,2020.1.2,Win32,60,,,,,left,0,1.253215,0,20,20,20,1,,,,,,,,
,,,,,1,"[1,1,1,1,1,1,0,1,1,1,1,1,1,0,1,1,0,1,1,1,1,1,1,1,1,1,1,1,1,0,0,1,1,0,1,0,1,1,1,1,1,1,0,1,1,1,1,1,1,0,1,0,0,0,1,1,0,1,1,1,1,1,1,1,1,1,1,0,0,0]",0,,,,,,stimuli/grey_butterfly.png,stimuli/white_butterfly.png,1,stimuli/red_flower.png,stimuli/green_flower.png,stimuli/yellow_flower.png,stimuli/blue_flower.png,up,stimuli/objects/redonion.jpg,0,3,stimuli/grey_butterfly.png,1,6,2020-12-22_10h07.41.780,premce3DEU_ses-02_part-01_label-phase1,2020.1.2,Win32,60,,,,,up,1,0.37706,0,21,21,21,1,,,,,,,,
,,,,,1,"[1,1,1,1,1,1,0,1,1,1,1,1,1,0,1,1,0,1,1,1,1,1,1,1,1,1,1,1,1,0,0,1,1,0,1,0,1,1,1,1,1,1,0,1,1,1,1,1,1,0,1,0,0,0,1,1,0,1,1,1,1,1,1,1,1,1,1,0,0,0]",1,,,,,,stimuli/white_butterfly.png,stimuli/grey_butterfly.png,1,stimuli/yellow_flower.png,stimuli/blue_flower.png,stimuli/green_flower.png,stimuli/red_flower.png,down,stimuli/objects/fluorescentlightbulb.jpg,1,3,stimuli/white_butterfly.png,1,6,2020-12-22_10h07.41.780,premce3DEU_ses-02_part-01_label-phase1,2020.1.2,Win32,60,,,,,down,1,1.66305,0,22,22,22,1,,,,,,,,
,,,,,0,"[1,1,1,1,1,1,0,1,1,1,1,1,1,0,1,1,0,1,1,1,1,1,1,1,1,1,1,1,1,0,0,1,1,0,1,0,1,1,1,1,1,1,0,1,1,1,1,1,1,0,1,0,0,0,1,1,0,1,1,1,1,1,1,1,1,1,1,0,0,0,1]",0,,,,,,stimuli/grey_butterfly.png,stimuli/white_butterfly.png,1,stimuli/blue_flower.png,stimuli/red_flower.png,stimuli/yellow_flower.png,stimuli/green_flower.png,down,stimuli/objects/urinal.jpg,1,3,stimuli/grey_butterfly.png,1,6,2020-12-22_10h07.41.780,premce3DEU_ses-02_part-01_label-phase1,2020.1.2,Win32,60,,,,,up,0,0.97021,0,23,23,23,1,,,,,,,,
,,,,,1,"[1,1,1,1,1,1,0,1,1,1,1,1,1,0,1,1,0,1,1,1,1,1,1,1,1,1,1,1,1,0,0,1,1,0,1,0,1,1,1,1,1,1,0,1,1,1,1,1,1,0,1,0,0,0,1,1,0,1,1,1,1,1,1,1,1,1,1,0,0,0,1,0]",1,,,,,,stimuli/white_butterfly.png,stimuli/grey_butterfly.png,2,stimuli/green_flower.png,stimuli/red_flower.png,stimuli/yellow_flower.png,stimuli/blue_flower.png,down,stimuli/objects/frisbee.jpg,1,3,stimuli/grey_butterfly.png,1,6,2020-12-22_10h07.41.780,premce3DEU_ses-02_part-01_label-phase1,2020.1.2,Win32,60,,,,,down,1,1.59897,0,24,24,24,1,,,,,,,,
,,,,,0,"[1,1,1,1,1,1,0,1,1,1,1,1,1,0,1,1,0,1,1,1,1,1,1,1,1,1,1,1,1,0,0,1,1,0,1,0,1,1,1,1,1,1,0,1,1,1,1,1,1,0,1,0,0,0,1,1,0,1,1,1,1,1,1,1,1,1,1,0,0,0,1,0,1]",1,,,,,,stimuli/grey_butterfly.png,stimuli/white_butterfly.png,2,stimuli/yellow_flower.png,stimuli/green_flower.png,stimuli/blue_flower.png,stimuli/red_flower.png,down,stimuli/objects/horse.jpg,0,3,stimuli/white_butterfly.png,1,6,2020-12-22_10h07.41.780,premce3DEU_ses-02_part-01_label-phase1,2020.1.2,Win32,60,,,,,up,0,1.225135,0,25,25,25,1,,,,,,,,
,,,,,0,"[1,1,1,1,1,1,0,1,1,1,1,1,1,0,1,1,0,1,1,1,1,1,1,1,1,1,1,1,1,0,0,1,1,0,1,0,1,1,1,1,1,1,0,1,1,1,1,1,1,0,1,0,0,0,1,1,0,1,1,1,1,1,1,1,1,1,1,0,0,0,1,0,1]",1,,,,,,stimuli/white_butterfly.png,stimuli/grey_butterfly.png,2,stimuli/blue_flower.png,stimuli/green_flower.png,stimuli/yellow_flower.png,stimuli/red_flower.png,left,stimuli/objects/tie02.jpg,0,3,stimuli/grey_butterfly.png,1,6,2020-12-22_10h07.41.780,premce3DEU_ses-02_part-01_label-phase1,2020.1.2,Win32,60,,,,,down,0,1.486495,0,26,26,26,1,,,,,,,,
,,,,,0,"[1,1,1,1,1,1,0,1,1,1,1,1,1,0,1,1,0,1,1,1,1,1,1,1,1,1,1,1,1,0,0,1,1,0,1,0,1,1,1,1,1,1,0,1,1,1,1,1,1,0,1,0,0,0,1,1,0,1,1,1,1,1,1,1,1,1,1,0,0,0,1,0,1]",0,,,,,,stimuli/grey_butterfly.png,stimuli/white_butterfly.png,1,stimuli/green_flower.png,stimuli/red_flower.png,stimuli/blue_flower.png,stimuli/yellow_flower.png,right,stimuli/objects/porcupine.jpg,1,3,stimuli/grey_butterfly.png,1,6,2020-12-22_10h07.41.780,premce3DEU_ses-02_part-01_label-phase1,2020.1.2,Win32,60,,,,,down,0,1.3495,0,27,27,27,1,,,,,,,,
,,,,,0,"[1,1,1,1,1,1,0,1,1,1,1,1,1,0,1,1,0,1,1,1,1,1,1,1,1,1,1,1,1,0,0,1,1,0,1,0,1,1,1,1,1,1,0,1,1,1,1,1,1,0,1,0,0,0,1,1,0,1,1,1,1,1,1,1,1,1,1,0,0,0,1,0,1,0]",0,,,,,,stimuli/white_butterfly.png,stimuli/grey_butterfly.png,1,stimuli/green_flower.png,stimuli/yellow_flower.png,stimuli/red_flower.png,stimuli/blue_flower.png,left,stimuli/objects/showerhead01.jpg,1,3,stimuli/white_butterfly.png,1,6,2020-12-22_10h07.41.780,premce3DEU_ses-02_part-01_label-phase1,2020.1.2,Win32,60,,,,,right,0,0.71652,0,28,28,28,1,,,,,,,,
,,,,,1,"[1,1,1,1,1,1,0,1,1,1,1,1,1,0,1,1,0,1,1,1,1,1,1,1,1,1,1,1,1,0,0,1,1,0,1,0,1,1,1,1,1,1,0,1,1,1,1,1,1,0,1,0,0,0,1,1,0,1,1,1,1,1,1,1,1,1,1,0,0,0,1,0,1,0,0]",1,,,,,,stimuli/white_butterfly.png,stimuli/grey_butterfly.png,1,stimuli/blue_flower.png,stimuli/yellow_flower.png,stimuli/green_flower.png,stimuli/red_flower.png,down,stimuli/objects/handheldtelescope.jpg,1,3,stimuli/white_butterfly.png,1,6,2020-12-22_10h07.41.780,premce3DEU_ses-02_part-01_label-phase1,2020.1.2,Win32,60,,,,,down,1,1.466095,0,29,29,29,1,,,,,,,,
,,,,,0,"[1,1,1,1,1,1,0,1,1,1,1,1,1,0,1,1,0,1,1,1,1,1,1,1,1,1,1,1,1,0,0,1,1,0,1,0,1,1,1,1,1,1,0,1,1,1,1,1,1,0,1,0,0,0,1,1,0,1,1,1,1,1,1,1,1,1,1,0,0,0,1,0,1,0,0,1]",0,,,,,,stimuli/grey_butterfly.png,stimuli/white_butterfly.png,1,stimuli/red_flower.png,stimuli/yellow_flower.png,stimuli/blue_flower.png,stimuli/green_flower.png,up,stimuli/objects/acorn.jpg,1,3,stimuli/grey_butterfly.png,1,6,2020-12-22_10h07.41.780,premce3DEU_ses-02_part-01_label-phase1,2020.1.2,Win32,60,,,,,right,0,1.049775,0,30,30,30,1,,,,,,,,
,,,,,1,"[1,1,1,1,1,1,0,1,1,1,1,1,1,0,1,1,0,1,1,1,1,1,1,1,1,1,1,1,1,0,0,1,1,0,1,0,1,1,1,1,1,1,0,1,1,1,1,1,1,0,1,0,0,0,1,1,0,1,1,1,1,1,1,1,1,1,1,0,0,0,1,0,1,0,0,1,0]",1,,,,,,stimuli/grey_butterfly.png,stimuli/white_butterfly.png,2,stimuli/green_flower.png,stimuli/red_flower.png,stimuli/blue_flower.png,stimuli/yellow_flower.png,left,stimuli/objects/polarbear.jpg,1,3,stimuli/white_butterfly.png,1,6,2020-12-22_10h07.41.780,premce3DEU_ses-02_part-01_label-phase1,2020.1.2,Win32,60,,,,,left,1,0.820925,0,31,31,31,1,,,,,,,,
,,,,,1,"[1,1,1,1,1,1,0,1,1,1,1,1,1,0,1,1,0,1,1,1,1,1,1,1,1,1,1,1,1,0,0,1,1,0,1,0,1,1,1,1,1,1,0,1,1,1,1,1,1,0,1,0,0,0,1,1,0,1,1,1,1,1,1,1,1,1,1,0,0,0,1,0,1,0,0,1,0,1]",1,,,,,,stimuli/white_butterfly.png,stimuli/grey_butterfly.png,1,stimuli/yellow_flower.png,stimuli/red_flower.png,stimuli/blue_flower.png,stimuli/green_flower.png,right,stimuli/objects/pirateflag.jpg,1,3,stimuli/white_butterfly.png,1,6,2020-12-22_10h07.41.780,premce3DEU_ses-02_part-01_label-phase1,2020.1.2,Win32,60,,,,,right,1,1.89377,0,32,32,32,1,,,,,,,,
,,,,,1,"[1,1,1,1,1,1,0,1,1,1,1,1,1,0,1,1,0,1,1,1,1,1,1,1,1,1,1,1,1,0,0,1,1,0,1,0,1,1,1,1,1,1,0,1,1,1,1,1,1,0,1,0,0,0,1,1,0,1,1,1,1,1,1,1,1,1,1,0,0,0,1,0,1,0,0,1,0,1,1]",1,,,,,,stimuli/grey_butterfly.png,stimuli/white_butterfly.png,1,stimuli/green_flower.png,stimuli/red_flower.png,stimuli/yellow_flower.png,stimuli/blue_flower.png,down,stimuli/objects/seagull.jpg,1,3,stimuli/grey_butterfly.png,1,6,2020-12-22_10h07.41.780,premce3DEU_ses-02_part-01_label-phase1,2020.1.2,Win32,60,,,,,down,1,1.66168,0,33,33,33,1,,,,,,,,
,,,,,1,"[1,1,1,1,1,1,0,1,1,1,1,1,1,0,1,1,0,1,1,1,1,1,1,1,1,1,1,1,1,0,0,1,1,0,1,0,1,1,1,1,1,1,0,1,1,1,1,1,1,0,1,0,0,0,1,1,0,1,1,1,1,1,1,1,1,1,1,0,0,0,1,0,1,0,0,1,0,1,1,1]",1,,,,,,stimuli/grey_butterfly.png,stimuli/white_butterfly.png,2,stimuli/red_flower.png,stimuli/blue_flower.png,stimuli/yellow_flower.png,stimuli/green_flower.png,right,stimuli/objects/toyanimal05.jpg,1,3,stimuli/white_butterfly.png,1,6,2020-12-22_10h07.41.780,premce3DEU_ses-02_part-01_label-phase1,2020.1.2,Win32,60,,,,,right,1,0.871535,0,34,34,34,1,,,,,,,,
,,,,,1,"[1,1,1,1,1,1,0,1,1,1,1,1,1,0,1,1,0,1,1,1,1,1,1,1,1,1,1,1,1,0,0,1,1,0,1,0,1,1,1,1,1,1,0,1,1,1,1,1,1,0,1,0,0,0,1,1,0,1,1,1,1,1,1,1,1,1,1,0,0,0,1,0,1,0,0,1,0,1,1,1,1]",1,,,,,,stimuli/grey_butterfly.png,stimuli/white_butterfly.png,1,stimuli/blue_flower.png,stimuli/green_flower.png,stimuli/red_flower.png,stimuli/yellow_flower.png,right,stimuli/objects/greywolf.jpg,1,3,stimuli/grey_butterfly.png,1,6,2020-12-22_10h07.41.780,premce3DEU_ses-02_part-01_label-phase1,2020.1.2,Win32,60,,,,,right,1,0.818195,0,35,35,35,1,,,,,,,,
,,,,,1,"[1,1,1,1,1,1,0,1,1,1,1,1,1,0,1,1,0,1,1,1,1,1,1,1,1,1,1,1,1,0,0,1,1,0,1,0,1,1,1,1,1,1,0,1,1,1,1,1,1,0,1,0,0,0,1,1,0,1,1,1,1,1,1,1,1,1,1,0,0,0,1,0,1,0,0,1,0,1,1,1,1,1]",1,,,,,,stimuli/grey_butterfly.png,stimuli/white_butterfly.png,1,stimuli/blue_flower.png,stimuli/green_flower.png,stimuli/yellow_flower.png,stimuli/red_flower.png,down,stimuli/objects/butterfly3.jpg,1,3,stimuli/grey_butterfly.png,1,6,2020-12-22_10h07.41.780,premce3DEU_ses-02_part-01_label-phase1,2020.1.2,Win32,60,,,,,down,1,0.79119,0,36,36,36,1,,,,,,,,
,,,,,0,"[1,1,1,1,1,1,0,1,1,1,1,1,1,0,1,1,0,1,1,1,1,1,1,1,1,1,1,1,1,0,0,1,1,0,1,0,1,1,1,1,1,1,0,1,1,1,1,1,1,0,1,0,0,0,1,1,0,1,1,1,1,1,1,1,1,1,1,0,0,0,1,0,1,0,0,1,0,1,1,1,1,1,1]",0,,,,,,stimuli/grey_butterfly.png,stimuli/white_butterfly.png,1,stimuli/green_flower.png,stimuli/blue_flower.png,stimuli/red_flower.png,stimuli/yellow_flower.png,right,stimuli/objects/surfboard.jpg,1,3,stimuli/grey_butterfly.png,1,6,2020-12-22_10h07.41.780,premce3DEU_ses-02_part-01_label-phase1,2020.1.2,Win32,60,,,,,left,0,1.198825,0,37,37,37,1,,,,,,,,
,,,,,1,"[1,1,1,1,1,1,0,1,1,1,1,1,1,0,1,1,0,1,1,1,1,1,1,1,1,1,1,1,1,0,0,1,1,0,1,0,1,1,1,1,1,1,0,1,1,1,1,1,1,0,1,0,0,0,1,1,0,1,1,1,1,1,1,1,1,1,1,0,0,0,1,0,1,0,0,1,0,1,1,1,1,1,1,0]",1,,,,,,stimuli/grey_butterfly.png,stimuli/white_butterfly.png,2,stimuli/yellow_flower.png,stimuli/blue_flower.png,stimuli/green_flower.png,stimuli/red_flower.png,down,stimuli/objects/donut.jpg,1,3,stimuli/white_butterfly.png,1,6,2020-12-22_10h07.41.780,premce3DEU_ses-02_part-01_label-phase1,2020.1.2,Win32,60,,,,,down,1,0.97656,0,38,38,38,1,,,,,,,,
,,,,,0,"[1,1,1,1,1,1,0,1,1,1,1,1,1,0,1,1,0,1,1,1,1,1,1,1,1,1,1,1,1,0,0,1,1,0,1,0,1,1,1,1,1,1,0,1,1,1,1,1,1,0,1,0,0,0,1,1,0,1,1,1,1,1,1,1,1,1,1,0,0,0,1,0,1,0,0,1,0,1,1,1,1,1,1,0,1]",1,,,,,,stimuli/white_butterfly.png,stimuli/grey_butterfly.png,1,stimuli/green_flower.png,stimuli/red_flower.png,stimuli/blue_flower.png,stimuli/yellow_flower.png,up,stimuli/objects/duck01.jpg,0,3,stimuli/white_butterfly.png,1,6,2020-12-22_10h07.41.780,premce3DEU_ses-02_part-01_label-phase1,2020.1.2,Win32,60,,,,,left,0,1.21871,0,39,39,39,1,,,,,,,,
,,,,,0,"[1,1,1,1,1,1,0,1,1,1,1,1,1,0,1,1,0,1,1,1,1,1,1,1,1,1,1,1,1,0,0,1,1,0,1,0,1,1,1,1,1,1,0,1,1,1,1,1,1,0,1,0,0,0,1,1,0,1,1,1,1,1,1,1,1,1,1,0,0,0,1,0,1,0,0,1,0,1,1,1,1,1,1,0,1]",0,,,,,,stimuli/grey_butterfly.png,stimuli/white_butterfly.png,1,stimuli/green_flower.png,stimuli/yellow_flower.png,stimuli/red_flower.png,stimuli/blue_flower.png,up,stimuli/objects/apron.jpg,1,3,stimuli/grey_butterfly.png,1,6,2020-12-22_10h07.41.780,premce3DEU_ses-02_part-01_label-phase1,2020.1.2,Win32,60,,,,,left,0,0.79269,0,40,40,40,1,,,,,,,,
,,,,,1,"[1,1,1,1,1,1,0,1,1,1,1,1,1,0,1,1,0,1,1,1,1,1,1,1,1,1,1,1,1,0,0,1,1,0,1,0,1,1,1,1,1,1,0,1,1,1,1,1,1,0,1,0,0,0,1,1,0,1,1,1,1,1,1,1,1,1,1,0,0,0,1,0,1,0,0,1,0,1,1,1,1,1,1,0,1,0]",1,,,,,,stimuli/grey_butterfly.png,stimuli/white_butterfly.png,1,stimuli/red_flower.png,stimuli/green_flower.png,stimuli/blue_flower.png,stimuli/yellow_flower.png,right,stimuli/objects/footballhelmet.jpg,1,3,stimuli/grey_butterfly.png,1,6,2020-12-22_10h07.41.780,premce3DEU_ses-02_part-01_label-phase1,2020.1.2,Win32,60,,,,,right,1,0.73734,0,41,41,41,1,,,,,,,,
,,,,,,,,,,,,,,,,,,,,,,,,,,6,2020-12-22_10h07.41.780,premce3DEU_ses-02_part-01_label-phase1,2020.1.2,Win32,60,,,,,,,,,,,,,0,1,1,1,1,condition_files/tasklistB3.csv,,
,,,,,0,"[1,1,1,1,1,1,0,1,1,1,1,1,1,0,1,1,0,1,1,1,1,1,1,1,1,1,1,1,1,0,0,1,1,0,1,0,1,1,1,1,1,1,0,1,1,1,1,1,1,0,1,0,0,0,1,1,0,1,1,1,1,1,1,1,1,1,1,0,0,0,1,0,1,0,0,1,0,1,1,1,1,1,1,0,1,0,1]",0,,,,,,stimuli/white_butterfly.png,stimuli/grey_butterfly.png,1,stimuli/yellow_flower.png,stimuli/blue_flower.png,stimuli/green_flower.png,stimuli/red_flower.png,left,stimuli/objects/christmaslights.jpg,1,4,stimuli/white_butterfly.png,0,6,2020-12-22_10h07.41.780,premce3DEU_ses-02_part-01_label-phase1,2020.1.2,Win32,60,,,,,down,0,1.26879,0,0,0,0,1,,,,,,,,
,,,,,0,"[1,1,1,1,1,1,0,1,1,1,1,1,1,0,1,1,0,1,1,1,1,1,1,1,1,1,1,1,1,0,0,1,1,0,1,0,1,1,1,1,1,1,0,1,1,1,1,1,1,0,1,0,0,0,1,1,0,1,1,1,1,1,1,1,1,1,1,0,0,0,1,0,1,0,0,1,0,1,1,1,1,1,1,0,1,0,1,0]",0,,,,,,stimuli/grey_butterfly.png,stimuli/white_butterfly.png,1,stimuli/red_flower.png,stimuli/yellow_flower.png,stimuli/green_flower.png,stimuli/blue_flower.png,right,stimuli/objects/zebra.jpg,1,4,stimuli/grey_butterfly.png,0,6,2020-12-22_10h07.41.780,premce3DEU_ses-02_part-01_label-phase1,2020.1.2,Win32,60,,,,,down,0,2.080465,0,1,1,1,1,,,,,,,,
,,,,,1,"[1,1,1,1,1,1,0,1,1,1,1,1,1,0,1,1,0,1,1,1,1,1,1,1,1,1,1,1,1,0,0,1,1,0,1,0,1,1,1,1,1,1,0,1,1,1,1,1,1,0,1,0,0,0,1,1,0,1,1,1,1,1,1,1,1,1,1,0,0,0,1,0,1,0,0,1,0,1,1,1,1,1,1,0,1,0,1,0,0]",1,,,,,,stimuli/white_butterfly.png,stimuli/grey_butterfly.png,2,stimuli/blue_flower.png,stimuli/red_flower.png,stimuli/yellow_flower.png,stimuli/green_flower.png,left,stimuli/objects/giraffe.jpg,1,4,stimuli/grey_butterfly.png,0,6,2020-12-22_10h07.41.780,premce3DEU_ses-02_part-01_label-phase1,2020.1.2,Win32,60,,,,,left,1,0.662125,0,2,2,2,1,,,,,,,,
,,,,,0,"[1,1,1,1,1,1,0,1,1,1,1,1,1,0,1,1,0,1,1,1,1,1,1,1,1,1,1,1,1,0,0,1,1,0,1,0,1,1,1,1,1,1,0,1,1,1,1,1,1,0,1,0,0,0,1,1,0,1,1,1,1,1,1,1,1,1,1,0,0,0,1,0,1,0,0,1,0,1,1,1,1,1,1,0,1,0,1,0,0,1]",0,,,,,,stimuli/grey_butterfly.png,stimuli/white_butterfly.png,2,stimuli/blue_flower.png,stimuli/red_flower.png,stimuli/yellow_flower.png,stimuli/green_flower.png,down,stimuli/objects/mirror02.jpg,1,4,stimuli/white_butterfly.png,0,6,2020-12-22_10h07.41.780,premce3DEU_ses-02_part-01_label-phase1,2020.1.2,Win32,60,,,,,right,0,1.131615,0,3,3,3,1,,,,,,,,
,,,,,1,"[1,1,1,1,1,1,0,1,1,1,1,1,1,0,1,1,0,1,1,1,1,1,1,1,1,1,1,1,1,0,0,1,1,0,1,0,1,1,1,1,1,1,0,1,1,1,1,1,1,0,1,0,0,0,1,1,0,1,1,1,1,1,1,1,1,1,1,0,0,0,1,0,1,0,0,1,0,1,1,1,1,1,1,0,1,0,1,0,0,1,0]",1,,,,,,stimuli/white_butterfly.png,stimuli/grey_butterfly.png,1,stimuli/blue_flower.png,stimuli/green_flower.png,stimuli/yellow_flower.png,stimuli/red_flower.png,down,stimuli/objects/recyclingbin.jpg,1,4,stimuli/white_butterfly.png,0,6,2020-12-22_10h07.41.780,premce3DEU_ses-02_part-01_label-phase1,2020.1.2,Win32,60,,,,,down,1,1.027715,0,4,4,4,1,,,,,,,,
,,,,,0,"[1,1,1,1,1,1,0,1,1,1,1,1,1,0,1,1,0,1,1,1,1,1,1,1,1,1,1,1,1,0,0,1,1,0,1,0,1,1,1,1,1,1,0,1,1,1,1,1,1,0,1,0,0,0,1,1,0,1,1,1,1,1,1,1,1,1,1,0,0,0,1,0,1,0,0,1,0,1,1,1,1,1,1,0,1,0,1,0,0,1,0,1]",0,,,,,,stimuli/white_butterfly.png,stimuli/grey_butterfly.png,1,stimuli/red_flower.png,stimuli/blue_flower.png,stimuli/yellow_flower.png,stimuli/green_flower.png,down,stimuli/objects/fishingrod.jpg,1,4,stimuli/white_butterfly.png,0,6,2020-12-22_10h07.41.780,premce3DEU_ses-02_part-01_label-phase1,2020.1.2,Win32,60,,,,,,0,,0,5,5,5,1,,,,,,,,
,,,,,1,"[1,1,1,1,1,1,0,1,1,1,1,1,1,0,1,1,0,1,1,1,1,1,1,1,1,1,1,1,1,0,0,1,1,0,1,0,1,1,1,1,1,1,0,1,1,1,1,1,1,0,1,0,0,0,1,1,0,1,1,1,1,1,1,1,1,1,1,0,0,0,1,0,1,0,0,1,0,1,1,1,1,1,1,0,1,0,1,0,0,1,0,1,0]",1,,,,,,stimuli/grey_butterfly.png,stimuli/white_butterfly.png,2,stimuli/green_flower.png,stimuli/red_flower.png,stimuli/blue_flower.png,stimuli/yellow_flower.png,right,stimuli/objects/barn.jpg,1,4,stimuli/white_butterfly.png,0,6,2020-12-22_10h07.41.780,premce3DEU_ses-02_part-01_label-phase1,2020.1.2,Win32,60,,,,,right,1,0.695765,0,6,6,6,1,,,,,,,,
,,,,,0,"[1,1,1,1,1,1,0,1,1,1,1,1,1,0,1,1,0,1,1,1,1,1,1,1,1,1,1,1,1,0,0,1,1,0,1,0,1,1,1,1,1,1,0,1,1,1,1,1,1,0,1,0,0,0,1,1,0,1,1,1,1,1,1,1,1,1,1,0,0,0,1,0,1,0,0,1,0,1,1,1,1,1,1,0,1,0,1,0,0,1,0,1,0,1]",0,,,,,,stimuli/white_butterfly.png,stimuli/grey_butterfly.png,2,stimuli/blue_flower.png,stimuli/yellow_flower.png,stimuli/green_flower.png,stimuli/red_flower.png,left,stimuli/objects/lightswitch01.jpg,1,4,stimuli/grey_butterfly.png,0,6,2020-12-22_10h07.41.780,premce3DEU_ses-02_part-01_label-phase1,2020.1.2,Win32,60,,,,,down,0,1.67878,0,7,7,7,1,,,,,,,,
,,,,,1,"[1,1,1,1,1,1,0,1,1,1,1,1,1,0,1,1,0,1,1,1,1,1,1,1,1,1,1,1,1,0,0,1,1,0,1,0,1,1,1,1,1,1,0,1,1,1,1,1,1,0,1,0,0,0,1,1,0,1,1,1,1,1,1,1,1,1,1,0,0,0,1,0,1,0,0,1,0,1,1,1,1,1,1,0,1,0,1,0,0,1,0,1,0,1,0]",1,,,,,,stimuli/white_butterfly.png,stimuli/grey_butterfly.png,2,stimuli/red_flower.png,stimuli/green_flower.png,stimuli/blue_flower.png,stimuli/yellow_flower.png,down,stimuli/objects/birdfeeder.jpg,1,4,stimuli/grey_butterfly.png,0,6,2020-12-22_10h07.41.780,premce3DEU_ses-02_part-01_label-phase1,2020.1.2,Win32,60,,,,,down,1,2.22281,0,8,8,8,1,,,,,,,,
,,,,,0,"[1,1,1,1,1,1,0,1,1,1,1,1,1,0,1,1,0,1,1,1,1,1,1,1,1,1,1,1,1,0,0,1,1,0,1,0,1,1,1,1,1,1,0,1,1,1,1,1,1,0,1,0,0,0,1,1,0,1,1,1,1,1,1,1,1,1,1,0,0,0,1,0,1,0,0,1,0,1,1,1,1,1,1,0,1,0,1,0,0,1,0,1,0,1,0,1]",1,,,,,,stimuli/grey_butterfly.png,stimuli/white_butterfly.png,2,stimuli/blue_flower.png,stimuli/red_flower.png,stimuli/green_flower.png,stimuli/yellow_flower.png,left,stimuli/objects/beaver.jpg,0,4,stimuli/white_butterfly.png,0,6,2020-12-22_10h07.41.780,premce3DEU_ses-02_part-01_label-phase1,2020.1.2,Win32,60,,,,,right,0,0.87857,0,9,9,9,1,,,,,,,,
,,,,,0,"[1,1,1,1,1,1,0,1,1,1,1,1,1,0,1,1,0,1,1,1,1,1,1,1,1,1,1,1,1,0,0,1,1,0,1,0,1,1,1,1,1,1,0,1,1,1,1,1,1,0,1,0,0,0,1,1,0,1,1,1,1,1,1,1,1,1,1,0,0,0,1,0,1,0,0,1,0,1,1,1,1,1,1,0,1,0,1,0,0,1,0,1,0,1,0,1]",1,,,,,,stimuli/grey_butterfly.png,stimuli/white_butterfly.png,1,stimuli/yellow_flower.png,stimuli/green_flower.png,stimuli/red_flower.png,stimuli/blue_flower.png,left,stimuli/objects/communitymailbox.jpg,0,4,stimuli/grey_butterfly.png,0,6,2020-12-22_10h07.41.780,premce3DEU_ses-02_part-01_label-phase1,2020.1.2,Win32,60,,,,,right,0,0.78073,0,10,10,10,1,,,,,,,,
,,,,,0,"[1,1,1,1,1,1,0,1,1,1,1,1,1,0,1,1,0,1,1,1,1,1,1,1,1,1,1,1,1,0,0,1,1,0,1,0,1,1,1,1,1,1,0,1,1,1,1,1,1,0,1,0,0,0,1,1,0,1,1,1,1,1,1,1,1,1,1,0,0,0,1,0,1,0,0,1,0,1,1,1,1,1,1,0,1,0,1,0,0,1,0,1,0,1,0,1]",0,,,,,,stimuli/white_butterfly.png,stimuli/grey_butterfly.png,1,stimuli/green_flower.png,stimuli/yellow_flower.png,stimuli/red_flower.png,stimuli/blue_flower.png,up,stimuli/objects/cannon.jpg,1,4,stimuli/white_butterfly.png,0,6,2020-12-22_10h07.41.780,premce3DEU_ses-02_part-01_label-phase1,2020.1.2,Win32,60,,,,,,0,,0,11,11,11,1,,,,,,,,
,,,,,1,"[1,1,1,1,1,1,0,1,1,1,1,1,1,0,1,1,0,1,1,1,1,1,1,1,1,1,1,1,1,0,0,1,1,0,1,0,1,1,1,1,1,1,0,1,1,1,1,1,1,0,1,0,0,0,1,1,0,1,1,1,1,1,1,1,1,1,1,0,0,0,1,0,1,0,0,1,0,1,1,1,1,1,1,0,1,0,1,0,0,1,0,1,0,1,0,1,0]",1,,,,,,stimuli/grey_butterfly.png,stimuli/white_butterfly.png,1,stimuli/blue_flower.png,stimuli/red_flower.png,stimuli/yellow_flower.png,stimuli/green_flower.png,left,stimuli/objects/coffeemachine.jpg,1,4,stimuli/grey_butterfly.png,0,6,2020-12-22_10h07.41.780,premce3DEU_ses-02_part-01_label-phase1,2020.1.2,Win32,60,,,,,left,1,1.26499,0,12,12,12,1,,,,,,,,
,,,,,1,"[1,1,1,1,1,1,0,1,1,1,1,1,1,0,1,1,0,1,1,1,1,1,1,1,1,1,1,1,1,0,0,1,1,0,1,0,1,1,1,1,1,1,0,1,1,1,1,1,1,0,1,0,0,0,1,1,0,1,1,1,1,1,1,1,1,1,1,0,0,0,1,0,1,0,0,1,0,1,1,1,1,1,1,0,1,0,1,0,0,1,0,1,0,1,0,1,0,1]",1,,,,,,stimuli/grey_butterfly.png,stimuli/white_butterfly.png,2,stimuli/red_flower.png,stimuli/green_flower.png,stimuli/blue_flower.png,stimuli/yellow_flower.png,right,stimuli/objects/treestump.jpg,1,4,stimuli/white_butterfly.png,0,6,2020-12-22_10h07.41.780,premce3DEU_ses-02_part-01_label-phase1,2020.1.2,Win32,60,,,,,right,1,0.628525,0,13,13,13,1,,,,,,,,
,,,,,0,"[1,1,1,1,1,1,0,1,1,1,1,1,1,0,1,1,0,1,1,1,1,1,1,1,1,1,1,1,1,0,0,1,1,0,1,0,1,1,1,1,1,1,0,1,1,1,1,1,1,0,1,0,0,0,1,1,0,1,1,1,1,1,1,1,1,1,1,0,0,0,1,0,1,0,0,1,0,1,1,1,1,1,1,0,1,0,1,0,0,1,0,1,0,1,0,1,0,1,1]",0,,,,,,stimuli/white_butterfly.png,stimuli/grey_butterfly.png,2,stimuli/blue_flower.png,stimuli/green_flower.png,stimuli/red_flower.png,stimuli/yellow_flower.png,left,stimuli/objects/panda.jpg,1,4,stimuli/grey_butterfly.png,0,6,2020-12-22_10h07.41.780,premce3DEU_ses-02_part-01_label-phase1,2020.1.2,Win32,60,,,,,right,0,0.50763,0,14,14,14,1,,,,,,,,
,,,,,1,"[1,1,1,1,1,1,0,1,1,1,1,1,1,0,1,1,0,1,1,1,1,1,1,1,1,1,1,1,1,0,0,1,1,0,1,0,1,1,1,1,1,1,0,1,1,1,1,1,1,0,1,0,0,0,1,1,0,1,1,1,1,1,1,1,1,1,1,0,0,0,1,0,1,0,0,1,0,1,1,1,1,1,1,0,1,0,1,0,0,1,0,1,0,1,0,1,0,1,1,0]",1,,,,,,stimuli/white_butterfly.png,stimuli/grey_butterfly.png,2,stimuli/yellow_flower.png,stimuli/blue_flower.png,stimuli/red_flower.png,stimuli/green_flower.png,up,stimuli/objects/butterfly2.jpg,1,4,stimuli/grey_butterfly.png,0,6,2020-12-22_10h07.41.780,premce3DEU_ses-02_part-01_label-phase1,2020.1.2,Win32,60,,,,,up,1,1.63468,0,15,15,15,1,,,,,,,,
,,,,,0,"[1,1,1,1,1,1,0,1,1,1,1,1,1,0,1,1,0,1,1,1,1,1,1,1,1,1,1,1,1,0,0,1,1,0,1,0,1,1,1,1,1,1,0,1,1,1,1,1,1,0,1,0,0,0,1,1,0,1,1,1,1,1,1,1,1,1,1,0,0,0,1,0,1,0,0,1,0,1,1,1,1,1,1,0,1,0,1,0,0,1,0,1,0,1,0,1,0,1,1,0,1]",1,,,,,,stimuli/grey_butterfly.png,stimuli/white_butterfly.png,1,stimuli/blue_flower.png,stimuli/yellow_flower.png,stimuli/red_flower.png,stimuli/green_flower.png,down,stimuli/objects/exitsign.jpg,0,4,stimuli/grey_butterfly.png,0,6,2020-12-22_10h07.41.780,premce3DEU_ses-02_part-01_label-phase1,2020.1.2,Win32,60,,,,,up,0,1.480345,0,16,16,16,1,,,,,,,,
,,,,,0,"[1,1,1,1,1,1,0,1,1,1,1,1,1,0,1,1,0,1,1,1,1,1,1,1,1,1,1,1,1,0,0,1,1,0,1,0,1,1,1,1,1,1,0,1,1,1,1,1,1,0,1,0,0,0,1,1,0,1,1,1,1,1,1,1,1,1,1,0,0,0,1,0,1,0,0,1,0,1,1,1,1,1,1,0,1,0,1,0,0,1,0,1,0,1,0,1,0,1,1,0,1]",1,,,,,,stimuli/grey_butterfly.png,stimuli/white_butterfly.png,2,stimuli/yellow_flower.png,stimuli/blue_flower.png,stimuli/green_flower.png,stimuli/red_flower.png,right,stimuli/objects/lintroller.jpg,0,4,stimuli/white_butterfly.png,0,6,2020-12-22_10h07.41.780,premce3DEU_ses-02_part-01_label-phase1,2020.1.2,Win32,60,,,,,left,0,0.546555,0,17,17,17,1,,,,,,,,
,,,,,1,"[1,1,1,1,1,1,0,1,1,1,1,1,1,0,1,1,0,1,1,1,1,1,1,1,1,1,1,1,1,0,0,1,1,0,1,0,1,1,1,1,1,1,0,1,1,1,1,1,1,0,1,0,0,0,1,1,0,1,1,1,1,1,1,1,1,1,1,0,0,0,1,0,1,0,0,1,0,1,1,1,1,1,1,0,1,0,1,0,0,1,0,1,0,1,0,1,0,1,1,0,1]",1,,,,,,stimuli/white_butterfly.png,stimuli/grey_butterfly.png,2,stimuli/yellow_flower.png,stimuli/green_flower.png,stimuli/red_flower.png,stimuli/blue_flower.png,right,stimuli/objects/cymbal.jpg,1,4,stimuli/grey_butterfly.png,0,6,2020-12-22_10h07.41.780,premce3DEU_ses-02_part-01_label-phase1,2020.1.2,Win32,60,,,,,right,1,1.347055,0,18,18,18,1,,,,,,,,
,,,,,0,"[1,1,1,1,1,1,0,1,1,1,1,1,1,0,1,1,0,1,1,1,1,1,1,1,1,1,1,1,1,0,0,1,1,0,1,0,1,1,1,1,1,1,0,1,1,1,1,1,1,0,1,0,0,0,1,1,0,1,1,1,1,1,1,1,1,1,1,0,0,0,1,0,1,0,0,1,0,1,1,1,1,1,1,0,1,0,1,0,0,1,0,1,0,1,0,1,0,1,1,0,1,1]",0,,,,,,stimuli/white_butterfly.png,stimuli/grey_butterfly.png,1,stimuli/green_flower.png,stimuli/red_flower.png,stimuli/blue_flower.png,stimuli/yellow_flower.png,right,stimuli/objects/baseballglove.jpg,1,4,stimuli/white_butterfly.png,0,6,2020-12-22_10h07.41.780,premce3DEU_ses-02_part-01_label-phase1,2020.1.2,Win32,60,,,,,,0,,0,19,19,19,1,,,,,,,,
,,,,,0,"[1,1,1,1,1,1,0,1,1,1,1,1,1,0,1,1,0,1,1,1,1,1,1,1,1,1,1,1,1,0,0,1,1,0,1,0,1,1,1,1,1,1,0,1,1,1,1,1,1,0,1,0,0,0,1,1,0,1,1,1,1,1,1,1,1,1,1,0,0,0,1,0,1,0,0,1,0,1,1,1,1,1,1,0,1,0,1,0,0,1,0,1,0,1,0,1,0,1,1,0,1,1,0]",0,,,,,,stimuli/white_butterfly.png,stimuli/grey_butterfly.png,2,stimuli/blue_flower.png,stimuli/green_flower.png,stimuli/yellow_flower.png,stimuli/red_flower.png,up,stimuli/objects/shelves.jpg,0,4,stimuli/grey_butterfly.png,0,6,2020-12-22_10h07.41.780,premce3DEU_ses-02_part-01_label-phase1,2020.1.2,Win32,60,,,,,left,0,1.715535,0,20,20,20,1,,,,,,,,
,,,,,0,"[1,1,1,1,1,1,0,1,1,1,1,1,1,0,1,1,0,1,1,1,1,1,1,1,1,1,1,1,1,0,0,1,1,0,1,0,1,1,1,1,1,1,0,1,1,1,1,1,1,0,1,0,0,0,1,1,0,1,1,1,1,1,1,1,1,1,1,0,0,0,1,0,1,0,0,1,0,1,1,1,1,1,1,0,1,0,1,0,0,1,0,1,0,1,0,1,0,1,1,0,1,1,0]",0,,,,,,stimuli/white_butterfly.png,stimuli/grey_butterfly.png,2,stimuli/yellow_flower.png,stimuli/red_flower.png,stimuli/green_flower.png,stimuli/blue_flower.png,right,stimuli/objects/weddingcake.jpg,1,4,stimuli/grey_butterfly.png,1,6,2020-12-22_10h07.41.780,premce3DEU_ses-02_part-01_label-phase1,2020.1.2,Win32,60,,,,,down,0,1.480515,0,21,21,21,1,,,,,,,,
,,,,,0,"[1,1,1,1,1,1,0,1,1,1,1,1,1,0,1,1,0,1,1,1,1,1,1,1,1,1,1,1,1,0,0,1,1,0,1,0,1,1,1,1,1,1,0,1,1,1,1,1,1,0,1,0,0,0,1,1,0,1,1,1,1,1,1,1,1,1,1,0,0,0,1,0,1,0,0,1,0,1,1,1,1,1,1,0,1,0,1,0,0,1,0,1,0,1,0,1,0,1,1,0,1,1,0,0]",0,,,,,,stimuli/grey_butterfly.png,stimuli/white_butterfly.png,1,stimuli/red_flower.png,stimuli/blue_flower.png,stimuli/green_flower.png,stimuli/yellow_flower.png,up,stimuli/objects/key07.jpg,1,4,stimuli/grey_butterfly.png,1,6,2020-12-22_10h07.41.780,premce3DEU_ses-02_part-01_label-phase1,2020.1.2,Win32,60,,,,,right,0,0.516925,0,22,22,22,1,,,,,,,,
,,,,,1,"[1,1,1,1,1,1,0,1,1,1,1,1,1,0,1,1,0,1,1,1,1,1,1,1,1,1,1,1,1,0,0,1,1,0,1,0,1,1,1,1,1,1,0,1,1,1,1,1,1,0,1,0,0,0,1,1,0,1,1,1,1,1,1,1,1,1,1,0,0,0,1,0,1,0,0,1,0,1,1,1,1,1,1,0,1,0,1,0,0,1,0,1,0,1,0,1,0,1,1,0,1,1,0,0,0]",1,,,,,,stimuli/white_butterfly.png,stimuli/grey_butterfly.png,1,stimuli/red_flower.png,stimuli/green_flower.png,stimuli/blue_flower.png,stimuli/yellow_flower.png,right,stimuli/objects/tricycle.jpg,1,4,stimuli/white_butterfly.png,1,6,2020-12-22_10h07.41.780,premce3DEU_ses-02_part-01_label-phase1,2020.1.2,Win32,60,,,,,right,1,0.619315,0,23,23,23,1,,,,,,,,
,,,,,0,"[1,1,1,1,1,1,0,1,1,1,1,1,1,0,1,1,0,1,1,1,1,1,1,1,1,1,1,1,1,0,0,1,1,0,1,0,1,1,1,1,1,1,0,1,1,1,1,1,1,0,1,0,0,0,1,1,0,1,1,1,1,1,1,1,1,1,1,0,0,0,1,0,1,0,0,1,0,1,1,1,1,1,1,0,1,0,1,0,0,1,0,1,0,1,0,1,0,1,1,0,1,1,0,0,0,1]",0,,,,,,stimuli/white_butterfly.png,stimuli/grey_butterfly.png,2,stimuli/blue_flower.png,stimuli/red_flower.png,stimuli/green_flower.png,stimuli/yellow_flower.png,left,stimuli/objects/escalator.jpg,1,4,stimuli/grey_butterfly.png,1,6,2020-12-22_10h07.41.780,premce3DEU_ses-02_part-01_label-phase1,2020.1.2,Win32,60,,,,,down,0,0.91085,0,24,24,24,1,,,,,,,,
,,,,,0,"[1,1,1,1,1,1,0,1,1,1,1,1,1,0,1,1,0,1,1,1,1,1,1,1,1,1,1,1,1,0,0,1,1,0,1,0,1,1,1,1,1,1,0,1,1,1,1,1,1,0,1,0,0,0,1,1,0,1,1,1,1,1,1,1,1,1,1,0,0,0,1,0,1,0,0,1,0,1,1,1,1,1,1,0,1,0,1,0,0,1,0,1,0,1,0,1,0,1,1,0,1,1,0,0,0,1,0]",0,,,,,,stimuli/grey_butterfly.png,stimuli/white_butterfly.png,1,stimuli/yellow_flower.png,stimuli/red_flower.png,stimuli/green_flower.png,stimuli/blue_flower.png,right,stimuli/objects/volleyball.jpg,1,4,stimuli/grey_butterfly.png,1,6,2020-12-22_10h07.41.780,premce3DEU_ses-02_part-01_label-phase1,2020.1.2,Win32,60,,,,,left,0,0.67671,0,25,25,25,1,,,,,,,,
,,,,,1,"[1,1,1,1,1,1,0,1,1,1,1,1,1,0,1,1,0,1,1,1,1,1,1,1,1,1,1,1,1,0,0,1,1,0,1,0,1,1,1,1,1,1,0,1,1,1,1,1,1,0,1,0,0,0,1,1,0,1,1,1,1,1,1,1,1,1,1,0,0,0,1,0,1,0,0,1,0,1,1,1,1,1,1,0,1,0,1,0,0,1,0,1,0,1,0,1,0,1,1,0,1,1,0,0,0,1,0,0]",1,,,,,,stimuli/grey_butterfly.png,stimuli/white_butterfly.png,1,stimuli/red_flower.png,stimuli/green_flower.png,stimuli/blue_flower.png,stimuli/yellow_flower.png,down,stimuli/objects/football.jpg,1,4,stimuli/grey_butterfly.png,1,6,2020-12-22_10h07.41.780,premce3DEU_ses-02_part-01_label-phase1,2020.1.2,Win32,60,,,,,down,1,0.64463,0,26,26,26,1,,,,,,,,
,,,,,1,"[1,1,1,1,1,1,0,1,1,1,1,1,1,0,1,1,0,1,1,1,1,1,1,1,1,1,1,1,1,0,0,1,1,0,1,0,1,1,1,1,1,1,0,1,1,1,1,1,1,0,1,0,0,0,1,1,0,1,1,1,1,1,1,1,1,1,1,0,0,0,1,0,1,0,0,1,0,1,1,1,1,1,1,0,1,0,1,0,0,1,0,1,0,1,0,1,0,1,1,0,1,1,0,0,0,1,0,0,1]",1,,,,,,stimuli/white_butterfly.png,stimuli/grey_butterfly.png,1,stimuli/red_flower.png,stimuli/yellow_flower.png,stimuli/blue_flower.png,stimuli/green_flower.png,up,stimuli/objects/windturbine.jpg,1,4,stimuli/white_butterfly.png,1,6,2020-12-22_10h07.41.780,premce3DEU_ses-02_part-01_label-phase1,2020.1.2,Win32,60,,,,,up,1,0.65076,0,27,27,27,1,,,,,,,,
,,,,,1,"[1,1,1,1,1,1,0,1,1,1,1,1,1,0,1,1,0,1,1,1,1,1,1,1,1,1,1,1,1,0,0,1,1,0,1,0,1,1,1,1,1,1,0,1,1,1,1,1,1,0,1,0,0,0,1,1,0,1,1,1,1,1,1,1,1,1,1,0,0,0,1,0,1,0,0,1,0,1,1,1,1,1,1,0,1,0,1,0,0,1,0,1,0,1,0,1,0,1,1,0,1,1,0,0,0,1,0,0,1,1]",1,,,,,,stimuli/grey_butterfly.png,stimuli/white_butterfly.png,2,stimuli/green_flower.png,stimuli/yellow_flower.png,stimuli/red_flower.png,stimuli/blue_flower.png,up,stimuli/objects/locomotive.jpg,1,4,stimuli/white_butterfly.png,1,6,2020-12-22_10h07.41.780,premce3DEU_ses-02_part-01_label-phase1,2020.1.2,Win32,60,,,,,up,1,0.601635,0,28,28,28,1,,,,,,,,
,,,,,1,"[1,1,1,1,1,1,0,1,1,1,1,1,1,0,1,1,0,1,1,1,1,1,1,1,1,1,1,1,1,0,0,1,1,0,1,0,1,1,1,1,1,1,0,1,1,1,1,1,1,0,1,0,0,0,1,1,0,1,1,1,1,1,1,1,1,1,1,0,0,0,1,0,1,0,0,1,0,1,1,1,1,1,1,0,1,0,1,0,0,1,0,1,0,1,0,1,0,1,1,0,1,1,0,0,0,1,0,0,1,1,1]",1,,,,,,stimuli/white_butterfly.png,stimuli/grey_butterfly.png,1,stimuli/yellow_flower.png,stimuli/green_flower.png,stimuli/red_flower.png,stimuli/blue_flower.png,left,stimuli/objects/bowlingpin.jpg,1,4,stimuli/white_butterfly.png,1,6,2020-12-22_10h07.41.780,premce3DEU_ses-02_part-01_label-phase1,2020.1.2,Win32,60,,,,,left,1,0.699255,0,29,29,29,1,,,,,,,,
,,,,,1,"[1,1,1,1,1,1,0,1,1,1,1,1,1,0,1,1,0,1,1,1,1,1,1,1,1,1,1,1,1,0,0,1,1,0,1,0,1,1,1,1,1,1,0,1,1,1,1,1,1,0,1,0,0,0,1,1,0,1,1,1,1,1,1,1,1,1,1,0,0,0,1,0,1,0,0,1,0,1,1,1,1,1,1,0,1,0,1,0,0,1,0,1,0,1,0,1,0,1,1,0,1,1,0,0,0,1,0,0,1,1,1,1]",1,,,,,,stimuli/white_butterfly.png,stimuli/grey_butterfly.png,1,stimuli/blue_flower.png,stimuli/green_flower.png,stimuli/red_flower.png,stimuli/yellow_flower.png,right,stimuli/objects/musicstand.jpg,1,4,stimuli/white_butterfly.png,1,6,2020-12-22_10h07.41.780,premce3DEU_ses-02_part-01_label-phase1,2020.1.2,Win32,60,,,,,right,1,0.57946,0,30,30,30,1,,,,,,,,
,,,,,0,"[1,1,1,1,1,1,0,1,1,1,1,1,1,0,1,1,0,1,1,1,1,1,1,1,1,1,1,1,1,0,0,1,1,0,1,0,1,1,1,1,1,1,0,1,1,1,1,1,1,0,1,0,0,0,1,1,0,1,1,1,1,1,1,1,1,1,1,0,0,0,1,0,1,0,0,1,0,1,1,1,1,1,1,0,1,0,1,0,0,1,0,1,0,1,0,1,0,1,1,0,1,1,0,0,0,1,0,0,1,1,1,1,1]",1,,,,,,stimuli/white_butterfly.png,stimuli/grey_butterfly.png,1,stimuli/green_flower.png,stimuli/red_flower.png,stimuli/yellow_flower.png,stimuli/blue_flower.png,left,stimuli/objects/sausage.jpg,0,4,stimuli/white_butterfly.png,1,6,2020-12-22_10h07.41.780,premce3DEU_ses-02_part-01_label-phase1,2020.1.2,Win32,60,,,,,down,0,0.86002,0,31,31,31,1,,,,,,,,
,,,,,0,"[1,1,1,1,1,1,0,1,1,1,1,1,1,0,1,1,0,1,1,1,1,1,1,1,1,1,1,1,1,0,0,1,1,0,1,0,1,1,1,1,1,1,0,1,1,1,1,1,1,0,1,0,0,0,1,1,0,1,1,1,1,1,1,1,1,1,1,0,0,0,1,0,1,0,0,1,0,1,1,1,1,1,1,0,1,0,1,0,0,1,0,1,0,1,0,1,0,1,1,0,1,1,0,0,0,1,0,0,1,1,1,1,1]",0,,,,,,stimuli/grey_butterfly.png,stimuli/white_butterfly.png,2,stimuli/blue_flower.png,stimuli/green_flower.png,stimuli/yellow_flower.png,stimuli/red_flower.png,down,stimuli/objects/car.jpg,1,4,stimuli/white_butterfly.png,1,6,2020-12-22_10h07.41.780,premce3DEU_ses-02_part-01_label-phase1,2020.1.2,Win32,60,,,,,left,0,0.938795,0,32,32,32,1,,,,,,,,
,,,,,1,"[1,1,1,1,1,1,0,1,1,1,1,1,1,0,1,1,0,1,1,1,1,1,1,1,1,1,1,1,1,0,0,1,1,0,1,0,1,1,1,1,1,1,0,1,1,1,1,1,1,0,1,0,0,0,1,1,0,1,1,1,1,1,1,1,1,1,1,0,0,0,1,0,1,0,0,1,0,1,1,1,1,1,1,0,1,0,1,0,0,1,0,1,0,1,0,1,0,1,1,0,1,1,0,0,0,1,0,0,1,1,1,1,1,0]",1,,,,,,stimuli/grey_butterfly.png,stimuli/white_butterfly.png,2,stimuli/yellow_flower.png,stimuli/green_flower.png,stimuli/blue_flower.png,stimuli/red_flower.png,left,stimuli/objects/dreamcatcher.jpg,1,4,stimuli/white_butterfly.png,1,6,2020-12-22_10h07.41.780,premce3DEU_ses-02_part-01_label-phase1,2020.1.2,Win32,60,,,,,left,1,0.662675,0,33,33,33,1,,,,,,,,
,,,,,1,"[1,1,1,1,1,1,0,1,1,1,1,1,1,0,1,1,0,1,1,1,1,1,1,1,1,1,1,1,1,0,0,1,1,0,1,0,1,1,1,1,1,1,0,1,1,1,1,1,1,0,1,0,0,0,1,1,0,1,1,1,1,1,1,1,1,1,1,0,0,0,1,0,1,0,0,1,0,1,1,1,1,1,1,0,1,0,1,0,0,1,0,1,0,1,0,1,0,1,1,0,1,1,0,0,0,1,0,0,1,1,1,1,1,0,1]",1,,,,,,stimuli/white_butterfly.png,stimuli/grey_butterfly.png,2,stimuli/green_flower.png,stimuli/blue_flower.png,stimuli/yellow_flower.png,stimuli/red_flower.png,up,stimuli/objects/table01.jpg,1,4,stimuli/grey_butterfly.png,1,6,2020-12-22_10h07.41.780,premce3DEU_ses-02_part-01_label-phase1,2020.1.2,Win32,60,,,,,up,1,2.388225,0,34,34,34,1,,,,,,,,
,,,,,1,"[1,1,1,1,1,1,0,1,1,1,1,1,1,0,1,1,0,1,1,1,1,1,1,1,1,1,1,1,1,0,0,1,1,0,1,0,1,1,1,1,1,1,0,1,1,1,1,1,1,0,1,0,0,0,1,1,0,1,1,1,1,1,1,1,1,1,1,0,0,0,1,0,1,0,0,1,0,1,1,1,1,1,1,0,1,0,1,0,0,1,0,1,0,1,0,1,0,1,1,0,1,1,0,0,0,1,0,0,1,1,1,1,1,0,1,1]",1,,,,,,stimuli/grey_butterfly.png,stimuli/white_butterfly.png,2,stimuli/yellow_flower.png,stimuli/red_flower.png,stimuli/green_flower.png,stimuli/blue_flower.png,left,stimuli/objects/jaguar.jpg,1,4,stimuli/white_butterfly.png,1,6,2020-12-22_10h07.41.780,premce3DEU_ses-02_part-01_label-phase1,2020.1.2,Win32,60,,,,,left,1,0.61888,0,35,35,35,1,,,,,,,,
,,,,,1,"[1,1,1,1,1,1,0,1,1,1,1,1,1,0,1,1,0,1,1,1,1,1,1,1,1,1,1,1,1,0,0,1,1,0,1,0,1,1,1,1,1,1,0,1,1,1,1,1,1,0,1,0,0,0,1,1,0,1,1,1,1,1,1,1,1,1,1,0,0,0,1,0,1,0,0,1,0,1,1,1,1,1,1,0,1,0,1,0,0,1,0,1,0,1,0,1,0,1,1,0,1,1,0,0,0,1,0,0,1,1,1,1,1,0,1,1,1]",1,,,,,,stimuli/grey_butterfly.png,stimuli/white_butterfly.png,2,stimuli/yellow_flower.png,stimuli/blue_flower.png,stimuli/red_flower.png,stimuli/green_flower.png,left,stimuli/objects/butterfly3.jpg,1,4,stimuli/white_butterfly.png,1,6,2020-12-22_10h07.41.780,premce3DEU_ses-02_part-01_label-phase1,2020.1.2,Win32,60,,,,,left,1,0.58685,0,36,36,36,1,,,,,,,,
,,,,,1,"[1,1,1,1,1,1,0,1,1,1,1,1,1,0,1,1,0,1,1,1,1,1,1,1,1,1,1,1,1,0,0,1,1,0,1,0,1,1,1,1,1,1,0,1,1,1,1,1,1,0,1,0,0,0,1,1,0,1,1,1,1,1,1,1,1,1,1,0,0,0,1,0,1,0,0,1,0,1,1,1,1,1,1,0,1,0,1,0,0,1,0,1,0,1,0,1,0,1,1,0,1,1,0,0,0,1,0,0,1,1,1,1,1,0,1,1,1,1]",1,,,,,,stimuli/white_butterfly.png,stimuli/grey_butterfly.png,2,stimuli/red_flower.png,stimuli/yellow_flower.png,stimuli/green_flower.png,stimuli/blue_flower.png,right,stimuli/objects/skihelmet01.jpg,1,4,stimuli/grey_butterfly.png,1,6,2020-12-22_10h07.41.780,premce3DEU_ses-02_part-01_label-phase1,2020.1.2,Win32,60,,,,,right,1,0.678995,0,37,37,37,1,,,,,,,,
,,,,,1,"[1,1,1,1,1,1,0,1,1,1,1,1,1,0,1,1,0,1,1,1,1,1,1,1,1,1,1,1,1,0,0,1,1,0,1,0,1,1,1,1,1,1,0,1,1,1,1,1,1,0,1,0,0,0,1,1,0,1,1,1,1,1,1,1,1,1,1,0,0,0,1,0,1,0,0,1,0,1,1,1,1,1,1,0,1,0,1,0,0,1,0,1,0,1,0,1,0,1,1,0,1,1,0,0,0,1,0,0,1,1,1,1,1,0,1,1,1,1,1]",1,,,,,,stimuli/grey_butterfly.png,stimuli/white_butterfly.png,2,stimuli/blue_flower.png,stimuli/green_flower.png,stimuli/red_flower.png,stimuli/yellow_flower.png,right,stimuli/objects/bleachers.jpg,1,4,stimuli/white_butterfly.png,1,6,2020-12-22_10h07.41.780,premce3DEU_ses-02_part-01_label-phase1,2020.1.2,Win32,60,,,,,right,1,1.25403,0,38,38,38,1,,,,,,,,
,,,,,1,"[1,1,1,1,1,1,0,1,1,1,1,1,1,0,1,1,0,1,1,1,1,1,1,1,1,1,1,1,1,0,0,1,1,0,1,0,1,1,1,1,1,1,0,1,1,1,1,1,1,0,1,0,0,0,1,1,0,1,1,1,1,1,1,1,1,1,1,0,0,0,1,0,1,0,0,1,0,1,1,1,1,1,1,0,1,0,1,0,0,1,0,1,0,1,0,1,0,1,1,0,1,1,0,0,0,1,0,0,1,1,1,1,1,0,1,1,1,1,1,1]",1,,,,,,stimuli/white_butterfly.png,stimuli/grey_butterfly.png,2,stimuli/green_flower.png,stimuli/yellow_flower.png,stimuli/red_flower.png,stimuli/blue_flower.png,right,stimuli/objects/jackrabbit.jpg,1,4,stimuli/grey_butterfly.png,1,6,2020-12-22_10h07.41.780,premce3DEU_ses-02_part-01_label-phase1,2020.1.2,Win32,60,,,,,right,1,1.21293,0,39,39,39,1,,,,,,,,
,,,,,1,"[1,1,1,1,1,1,0,1,1,1,1,1,1,0,1,1,0,1,1,1,1,1,1,1,1,1,1,1,1,0,0,1,1,0,1,0,1,1,1,1,1,1,0,1,1,1,1,1,1,0,1,0,0,0,1,1,0,1,1,1,1,1,1,1,1,1,1,0,0,0,1,0,1,0,0,1,0,1,1,1,1,1,1,0,1,0,1,0,0,1,0,1,0,1,0,1,0,1,1,0,1,1,0,0,0,1,0,0,1,1,1,1,1,0,1,1,1,1,1,1,1]",1,,,,,,stimuli/grey_butterfly.png,stimuli/white_butterfly.png,1,stimuli/blue_flower.png,stimuli/yellow_flower.png,stimuli/green_flower.png,stimuli/red_flower.png,left,stimuli/objects/hulahoop.jpg,1,4,stimuli/grey_butterfly.png,1,6,2020-12-22_10h07.41.780,premce3DEU_ses-02_part-01_label-phase1,2020.1.2,Win32,60,,,,,left,1,0.664315,0,40,40,40,1,,,,,,,,
,,,,,1,"[1,1,1,1,1,1,0,1,1,1,1,1,1,0,1,1,0,1,1,1,1,1,1,1,1,1,1,1,1,0,0,1,1,0,1,0,1,1,1,1,1,1,0,1,1,1,1,1,1,0,1,0,0,0,1,1,0,1,1,1,1,1,1,1,1,1,1,0,0,0,1,0,1,0,0,1,0,1,1,1,1,1,1,0,1,0,1,0,0,1,0,1,0,1,0,1,0,1,1,0,1,1,0,0,0,1,0,0,1,1,1,1,1,0,1,1,1,1,1,1,1,1]",1,,,,,,stimuli/white_butterfly.png,stimuli/grey_butterfly.png,2,stimuli/red_flower.png,stimuli/yellow_flower.png,stimuli/blue_flower.png,stimuli/green_flower.png,down,stimuli/objects/dogsled.jpg,1,4,stimuli/grey_butterfly.png,1,6,2020-12-22_10h07.41.780,premce3DEU_ses-02_part-01_label-phase1,2020.1.2,Win32,60,,,,,down,1,0.74801,0,41,41,41,1,,,,,,,,
,,,,,,,,,,,,,,,,,,,,,,,,,,6,2020-12-22_10h07.41.780,premce3DEU_ses-02_part-01_label-phase1,2020.1.2,Win32,60,,,,,,,,,,,,,0,2,2,2,1,condition_files/tasklistC3.csv,,
,,,,,0,"[1,1,1,1,1,1,0,1,1,1,1,1,1,0,1,1,0,1,1,1,1,1,1,1,1,1,1,1,1,0,0,1,1,0,1,0,1,1,1,1,1,1,0,1,1,1,1,1,1,0,1,0,0,0,1,1,0,1,1,1,1,1,1,1,1,1,1,0,0,0,1,0,1,0,0,1,0,1,1,1,1,1,1,0,1,0,1,0,0,1,0,1,0,1,0,1,0,1,1,0,1,1,0,0,0,1,0,0,1,1,1,1,1,0,1,1,1,1,1,1,1,1,1]",1,,,,,,stimuli/grey_butterfly.png,stimuli/white_butterfly.png,1,stimuli/red_flower.png,stimuli/green_flower.png,stimuli/yellow_flower.png,stimuli/blue_flower.png,down,stimuli/objects/dalmatian.jpg,0,5,stimuli/grey_butterfly.png,0,6,2020-12-22_10h07.41.780,premce3DEU_ses-02_part-01_label-phase1,2020.1.2,Win32,60,,,,,right,0,0.476065,0,0,0,0,1,,,,,,,,
,,,,,0,"[1,1,1,1,1,1,0,1,1,1,1,1,1,0,1,1,0,1,1,1,1,1,1,1,1,1,1,1,1,0,0,1,1,0,1,0,1,1,1,1,1,1,0,1,1,1,1,1,1,0,1,0,0,0,1,1,0,1,1,1,1,1,1,1,1,1,1,0,0,0,1,0,1,0,0,1,0,1,1,1,1,1,1,0,1,0,1,0,0,1,0,1,0,1,0,1,0,1,1,0,1,1,0,0,0,1,0,0,1,1,1,1,1,0,1,1,1,1,1,1,1,1,1]",0,,,,,,stimuli/white_butterfly.png,stimuli/grey_butterfly.png,1,stimuli/yellow_flower.png,stimuli/red_flower.png,stimuli/blue_flower.png,stimuli/green_flower.png,up,stimuli/objects/trombone.jpg,1,5,stimuli/white_butterfly.png,0,6,2020-12-22_10h07.41.780,premce3DEU_ses-02_part-01_label-phase1,2020.1.2,Win32,60,,,,,left,0,0.578235,0,1,1,1,1,,,,,,,,
,,,,,0,"[1,1,1,1,1,1,0,1,1,1,1,1,1,0,1,1,0,1,1,1,1,1,1,1,1,1,1,1,1,0,0,1,1,0,1,0,1,1,1,1,1,1,0,1,1,1,1,1,1,0,1,0,0,0,1,1,0,1,1,1,1,1,1,1,1,1,1,0,0,0,1,0,1,0,0,1,0,1,1,1,1,1,1,0,1,0,1,0,0,1,0,1,0,1,0,1,0,1,1,0,1,1,0,0,0,1,0,0,1,1,1,1,1,0,1,1,1,1,1,1,1,1,1,0]",0,,,,,,stimuli/grey_butterfly.png,stimuli/white_butterfly.png,2,stimuli/green_flower.png,stimuli/yellow_flower.png,stimuli/red_flower.png,stimuli/blue_flower.png,down,stimuli/objects/trafficlight.jpg,1,5,stimuli/white_butterfly.png,0,6,2020-12-22_10h07.41.780,premce3DEU_ses-02_part-01_label-phase1,2020.1.2,Win32,60,,,,,up,0,0.861265,0,2,2,2,1,,,,,,,,
,,,,,1,"[1,1,1,1,1,1,0,1,1,1,1,1,1,0,1,1,0,1,1,1,1,1,1,1,1,1,1,1,1,0,0,1,1,0,1,0,1,1,1,1,1,1,0,1,1,1,1,1,1,0,1,0,0,0,1,1,0,1,1,1,1,1,1,1,1,1,1,0,0,0,1,0,1,0,0,1,0,1,1,1,1,1,1,0,1,0,1,0,0,1,0,1,0,1,0,1,0,1,1,0,1,1,0,0,0,1,0,0,1,1,1,1,1,0,1,1,1,1,1,1,1,1,1,0,0]",1,,,,,,stimuli/grey_butterfly.png,stimuli/white_butterfly.png,2,stimuli/green_flower.png,stimuli/blue_flower.png,stimuli/red_flower.png,stimuli/yellow_flower.png,down,stimuli/objects/aquarium.jpg,1,5,stimuli/white_butterfly.png,0,6,2020-12-22_10h07.41.780,premce3DEU_ses-02_part-01_label-phase1,2020.1.2,Win32,60,,,,,down,1,0.46893,0,3,3,3,1,,,,,,,,
,,,,,1,"[1,1,1,1,1,1,0,1,1,1,1,1,1,0,1,1,0,1,1,1,1,1,1,1,1,1,1,1,1,0,0,1,1,0,1,0,1,1,1,1,1,1,0,1,1,1,1,1,1,0,1,0,0,0,1,1,0,1,1,1,1,1,1,1,1,1,1,0,0,0,1,0,1,0,0,1,0,1,1,1,1,1,1,0,1,0,1,0,0,1,0,1,0,1,0,1,0,1,1,0,1,1,0,0,0,1,0,0,1,1,1,1,1,0,1,1,1,1,1,1,1,1,1,0,0,1]",1,,,,,,stimuli/white_butterfly.png,stimuli/grey_butterfly.png,1,stimuli/blue_flower.png,stimuli/green_flower.png,stimuli/yellow_flower.png,stimuli/red_flower.png,right,stimuli/objects/dolphin01.jpg,1,5,stimuli/white_butterfly.png,0,6,2020-12-22_10h07.41.780,premce3DEU_ses-02_part-01_label-phase1,2020.1.2,Win32,60,,,,,right,1,0.646095,0,4,4,4,1,,,,,,,,
,,,,,1,"[1,1,1,1,1,1,0,1,1,1,1,1,1,0,1,1,0,1,1,1,1,1,1,1,1,1,1,1,1,0,0,1,1,0,1,0,1,1,1,1,1,1,0,1,1,1,1,1,1,0,1,0,0,0,1,1,0,1,1,1,1,1,1,1,1,1,1,0,0,0,1,0,1,0,0,1,0,1,1,1,1,1,1,0,1,0,1,0,0,1,0,1,0,1,0,1,0,1,1,0,1,1,0,0,0,1,0,0,1,1,1,1,1,0,1,1,1,1,1,1,1,1,1,0,0,1,1]",1,,,,,,stimuli/white_butterfly.png,stimuli/grey_butterfly.png,1,stimuli/green_flower.png,stimuli/blue_flower.png,stimuli/red_flower.png,stimuli/yellow_flower.png,down,stimuli/objects/battleaxe.jpg,1,5,stimuli/white_butterfly.png,0,6,2020-12-22_10h07.41.780,premce3DEU_ses-02_part-01_label-phase1,2020.1.2,Win32,60,,,,,down,1,0.76007,0,5,5,5,1,,,,,,,,
,,,,,1,"[1,1,1,1,1,1,0,1,1,1,1,1,1,0,1,1,0,1,1,1,1,1,1,1,1,1,1,1,1,0,0,1,1,0,1,0,1,1,1,1,1,1,0,1,1,1,1,1,1,0,1,0,0,0,1,1,0,1,1,1,1,1,1,1,1,1,1,0,0,0,1,0,1,0,0,1,0,1,1,1,1,1,1,0,1,0,1,0,0,1,0,1,0,1,0,1,0,1,1,0,1,1,0,0,0,1,0,0,1,1,1,1,1,0,1,1,1,1,1,1,1,1,1,0,0,1,1,1]",1,,,,,,stimuli/white_butterfly.png,stimuli/grey_butterfly.png,1,stimuli/green_flower.png,stimuli/yellow_flower.png,stimuli/blue_flower.png,stimuli/red_flower.png,right,stimuli/objects/cookingpot.jpg,1,5,stimuli/white_butterfly.png,0,6,2020-12-22_10h07.41.780,premce3DEU_ses-02_part-01_label-phase1,2020.1.2,Win32,60,,,,,right,1,0.484475,0,6,6,6,1,,,,,,,,
,,,,,0,"[1,1,1,1,1,1,0,1,1,1,1,1,1,0,1,1,0,1,1,1,1,1,1,1,1,1,1,1,1,0,0,1,1,0,1,0,1,1,1,1,1,1,0,1,1,1,1,1,1,0,1,0,0,0,1,1,0,1,1,1,1,1,1,1,1,1,1,0,0,0,1,0,1,0,0,1,0,1,1,1,1,1,1,0,1,0,1,0,0,1,0,1,0,1,0,1,0,1,1,0,1,1,0,0,0,1,0,0,1,1,1,1,1,0,1,1,1,1,1,1,1,1,1,0,0,1,1,1,1]",1,,,,,,stimuli/white_butterfly.png,stimuli/grey_butterfly.png,2,stimuli/green_flower.png,stimuli/blue_flower.png,stimuli/red_flower.png,stimuli/yellow_flower.png,down,stimuli/objects/vacuumcleaner01.jpg,0,5,stimuli/grey_butterfly.png,0,6,2020-12-22_10h07.41.780,premce3DEU_ses-02_part-01_label-phase1,2020.1.2,Win32,60,,,,,right,0,2.03578,0,7,7,7,1,,,,,,,,
,,,,,1,"[1,1,1,1,1,1,0,1,1,1,1,1,1,0,1,1,0,1,1,1,1,1,1,1,1,1,1,1,1,0,0,1,1,0,1,0,1,1,1,1,1,1,0,1,1,1,1,1,1,0,1,0,0,0,1,1,0,1,1,1,1,1,1,1,1,1,1,0,0,0,1,0,1,0,0,1,0,1,1,1,1,1,1,0,1,0,1,0,0,1,0,1,0,1,0,1,0,1,1,0,1,1,0,0,0,1,0,0,1,1,1,1,1,0,1,1,1,1,1,1,1,1,1,0,0,1,1,1,1]",1,,,,,,stimuli/grey_butterfly.png,stimuli/white_butterfly.png,2,stimuli/blue_flower.png,stimuli/green_flower.png,stimuli/red_flower.png,stimuli/yellow_flower.png,down,stimuli/objects/star.jpg,1,5,stimuli/white_butterfly.png,0,6,2020-12-22_10h07.41.780,premce3DEU_ses-02_part-01_label-phase1,2020.1.2,Win32,60,,,,,down,1,0.682535,0,8,8,8,1,,,,,,,,
,,,,,0,"[1,1,1,1,1,1,0,1,1,1,1,1,1,0,1,1,0,1,1,1,1,1,1,1,1,1,1,1,1,0,0,1,1,0,1,0,1,1,1,1,1,1,0,1,1,1,1,1,1,0,1,0,0,0,1,1,0,1,1,1,1,1,1,1,1,1,1,0,0,0,1,0,1,0,0,1,0,1,1,1,1,1,1,0,1,0,1,0,0,1,0,1,0,1,0,1,0,1,1,0,1,1,0,0,0,1,0,0,1,1,1,1,1,0,1,1,1,1,1,1,1,1,1,0,0,1,1,1,1,1]",0,,,,,,stimuli/white_butterfly.png,stimuli/grey_butterfly.png,2,stimuli/green_flower.png,stimuli/yellow_flower.png,stimuli/blue_flower.png,stimuli/red_flower.png,left,stimuli/objects/bacon.jpg,1,5,stimuli/grey_butterfly.png,0,6,2020-12-22_10h07.41.780,premce3DEU_ses-02_part-01_label-phase1,2020.1.2,Win32,60,,,,,up,0,0.882165,0,9,9,9,1,,,,,,,,
,,,,,1,"[1,1,1,1,1,1,0,1,1,1,1,1,1,0,1,1,0,1,1,1,1,1,1,1,1,1,1,1,1,0,0,1,1,0,1,0,1,1,1,1,1,1,0,1,1,1,1,1,1,0,1,0,0,0,1,1,0,1,1,1,1,1,1,1,1,1,1,0,0,0,1,0,1,0,0,1,0,1,1,1,1,1,1,0,1,0,1,0,0,1,0,1,0,1,0,1,0,1,1,0,1,1,0,0,0,1,0,0,1,1,1,1,1,0,1,1,1,1,1,1,1,1,1,0,0,1,1,1,1,1,0]",1,,,,,,stimuli/white_butterfly.png,stimuli/grey_butterfly.png,2,stimuli/green_flower.png,stimuli/red_flower.png,stimuli/blue_flower.png,stimuli/yellow_flower.png,left,stimuli/objects/golfball.jpg,1,5,stimuli/grey_butterfly.png,0,6,2020-12-22_10h07.41.780,premce3DEU_ses-02_part-01_label-phase1,2020.1.2,Win32,60,,,,,left,1,0.37538,0,10,10,10,1,,,,,,,,
,,,,,1,"[1,1,1,1,1,1,0,1,1,1,1,1,1,0,1,1,0,1,1,1,1,1,1,1,1,1,1,1,1,0,0,1,1,0,1,0,1,1,1,1,1,1,0,1,1,1,1,1,1,0,1,0,0,0,1,1,0,1,1,1,1,1,1,1,1,1,1,0,0,0,1,0,1,0,0,1,0,1,1,1,1,1,1,0,1,0,1,0,0,1,0,1,0,1,0,1,0,1,1,0,1,1,0,0,0,1,0,0,1,1,1,1,1,0,1,1,1,1,1,1,1,1,1,0,0,1,1,1,1,1,0,1]",1,,,,,,stimuli/white_butterfly.png,stimuli/grey_butterfly.png,2,stimuli/blue_flower.png,stimuli/green_flower.png,stimuli/red_flower.png,stimuli/yellow_flower.png,up,stimuli/objects/cuttlefish.jpg,1,5,stimuli/grey_butterfly.png,0,6,2020-12-22_10h07.41.780,premce3DEU_ses-02_part-01_label-phase1,2020.1.2,Win32,60,,,,,up,1,0.86317,0,11,11,11,1,,,,,,,,
,,,,,1,"[1,1,1,1,1,1,0,1,1,1,1,1,1,0,1,1,0,1,1,1,1,1,1,1,1,1,1,1,1,0,0,1,1,0,1,0,1,1,1,1,1,1,0,1,1,1,1,1,1,0,1,0,0,0,1,1,0,1,1,1,1,1,1,1,1,1,1,0,0,0,1,0,1,0,0,1,0,1,1,1,1,1,1,0,1,0,1,0,0,1,0,1,0,1,0,1,0,1,1,0,1,1,0,0,0,1,0,0,1,1,1,1,1,0,1,1,1,1,1,1,1,1,1,0,0,1,1,1,1,1,0,1,1]",1,,,,,,stimuli/white_butterfly.png,stimuli/grey_butterfly.png,2,stimuli/red_flower.png,stimuli/yellow_flower.png,stimuli/green_flower.png,stimuli/blue_flower.png,down,stimuli/objects/tent.jpg,1,5,stimuli/grey_butterfly.png,0,6,2020-12-22_10h07.41.780,premce3DEU_ses-02_part-01_label-phase1,2020.1.2,Win32,60,,,,,down,1,1.45481,0,12,12,12,1,,,,,,,,
,,,,,0,"[1,1,1,1,1,1,0,1,1,1,1,1,1,0,1,1,0,1,1,1,1,1,1,1,1,1,1,1,1,0,0,1,1,0,1,0,1,1,1,1,1,1,0,1,1,1,1,1,1,0,1,0,0,0,1,1,0,1,1,1,1,1,1,1,1,1,1,0,0,0,1,0,1,0,0,1,0,1,1,1,1,1,1,0,1,0,1,0,0,1,0,1,0,1,0,1,0,1,1,0,1,1,0,0,0,1,0,0,1,1,1,1,1,0,1,1,1,1,1,1,1,1,1,0,0,1,1,1,1,1,0,1,1,1]",0,,,,,,stimuli/grey_butterfly.png,stimuli/white_butterfly.png,2,stimuli/yellow_flower.png,stimuli/green_flower.png,stimuli/red_flower.png,stimuli/blue_flower.png,down,stimuli/objects/chipmunk.jpg,1,5,stimuli/white_butterfly.png,0,6,2020-12-22_10h07.41.780,premce3DEU_ses-02_part-01_label-phase1,2020.1.2,Win32,60,,,,,,0,,0,13,13,13,1,,,,,,,,
,,,,,0,"[1,1,1,1,1,1,0,1,1,1,1,1,1,0,1,1,0,1,1,1,1,1,1,1,1,1,1,1,1,0,0,1,1,0,1,0,1,1,1,1,1,1,0,1,1,1,1,1,1,0,1,0,0,0,1,1,0,1,1,1,1,1,1,1,1,1,1,0,0,0,1,0,1,0,0,1,0,1,1,1,1,1,1,0,1,0,1,0,0,1,0,1,0,1,0,1,0,1,1,0,1,1,0,0,0,1,0,0,1,1,1,1,1,0,1,1,1,1,1,1,1,1,1,0,0,1,1,1,1,1,0,1,1,1,0]",0,,,,,,stimuli/grey_butterfly.png,stimuli/white_butterfly.png,1,stimuli/blue_flower.png,stimuli/red_flower.png,stimuli/yellow_flower.png,stimuli/green_flower.png,right,stimuli/objects/artichoke01b.jpg,1,5,stimuli/grey_butterfly.png,0,6,2020-12-22_10h07.41.780,premce3DEU_ses-02_part-01_label-phase1,2020.1.2,Win32,60,,,,,,0,,0,14,14,14,1,,,,,,,,
,,,,,1,"[1,1,1,1,1,1,0,1,1,1,1,1,1,0,1,1,0,1,1,1,1,1,1,1,1,1,1,1,1,0,0,1,1,0,1,0,1,1,1,1,1,1,0,1,1,1,1,1,1,0,1,0,0,0,1,1,0,1,1,1,1,1,1,1,1,1,1,0,0,0,1,0,1,0,0,1,0,1,1,1,1,1,1,0,1,0,1,0,0,1,0,1,0,1,0,1,0,1,1,0,1,1,0,0,0,1,0,0,1,1,1,1,1,0,1,1,1,1,1,1,1,1,1,0,0,1,1,1,1,1,0,1,1,1,0,0]",1,,,,,,stimuli/grey_butterfly.png,stimuli/white_butterfly.png,1,stimuli/green_flower.png,stimuli/red_flower.png,stimuli/yellow_flower.png,stimuli/blue_flower.png,left,stimuli/objects/ipad02.jpg,1,5,stimuli/grey_butterfly.png,0,6,2020-12-22_10h07.41.780,premce3DEU_ses-02_part-01_label-phase1,2020.1.2,Win32,60,,,,,left,1,0.573885,0,15,15,15,1,,,,,,,,
,,,,,1,"[1,1,1,1,1,1,0,1,1,1,1,1,1,0,1,1,0,1,1,1,1,1,1,1,1,1,1,1,1,0,0,1,1,0,1,0,1,1,1,1,1,1,0,1,1,1,1,1,1,0,1,0,0,0,1,1,0,1,1,1,1,1,1,1,1,1,1,0,0,0,1,0,1,0,0,1,0,1,1,1,1,1,1,0,1,0,1,0,0,1,0,1,0,1,0,1,0,1,1,0,1,1,0,0,0,1,0,0,1,1,1,1,1,0,1,1,1,1,1,1,1,1,1,0,0,1,1,1,1,1,0,1,1,1,0,0,1]",1,,,,,,stimuli/grey_butterfly.png,stimuli/white_butterfly.png,1,stimuli/blue_flower.png,stimuli/green_flower.png,stimuli/red_flower.png,stimuli/yellow_flower.png,up,stimuli/objects/cloud.jpg,1,5,stimuli/grey_butterfly.png,0,6,2020-12-22_10h07.41.780,premce3DEU_ses-02_part-01_label-phase1,2020.1.2,Win32,60,,,,,up,1,0.931535,0,16,16,16,1,,,,,,,,
,,,,,1,"[1,1,1,1,1,1,0,1,1,1,1,1,1,0,1,1,0,1,1,1,1,1,1,1,1,1,1,1,1,0,0,1,1,0,1,0,1,1,1,1,1,1,0,1,1,1,1,1,1,0,1,0,0,0,1,1,0,1,1,1,1,1,1,1,1,1,1,0,0,0,1,0,1,0,0,1,0,1,1,1,1,1,1,0,1,0,1,0,0,1,0,1,0,1,0,1,0,1,1,0,1,1,0,0,0,1,0,0,1,1,1,1,1,0,1,1,1,1,1,1,1,1,1,0,0,1,1,1,1,1,0,1,1,1,0,0,1,1]",1,,,,,,stimuli/white_butterfly.png,stimuli/grey_butterfly.png,1,stimuli/green_flower.png,stimuli/red_flower.png,stimuli/yellow_flower.png,stimuli/blue_flower.png,up,stimuli/objects/butterfly4.jpg,1,5,stimuli/white_butterfly.png,0,6,2020-12-22_10h07.41.780,premce3DEU_ses-02_part-01_label-phase1,2020.1.2,Win32,60,,,,,up,1,1.94074,0,17,17,17,1,,,,,,,,
,,,,,1,"[1,1,1,1,1,1,0,1,1,1,1,1,1,0,1,1,0,1,1,1,1,1,1,1,1,1,1,1,1,0,0,1,1,0,1,0,1,1,1,1,1,1,0,1,1,1,1,1,1,0,1,0,0,0,1,1,0,1,1,1,1,1,1,1,1,1,1,0,0,0,1,0,1,0,0,1,0,1,1,1,1,1,1,0,1,0,1,0,0,1,0,1,0,1,0,1,0,1,1,0,1,1,0,0,0,1,0,0,1,1,1,1,1,0,1,1,1,1,1,1,1,1,1,0,0,1,1,1,1,1,0,1,1,1,0,0,1,1,1]",1,,,,,,stimuli/white_butterfly.png,stimuli/grey_butterfly.png,2,stimuli/yellow_flower.png,stimuli/blue_flower.png,stimuli/red_flower.png,stimuli/green_flower.png,right,stimuli/objects/lionstatue.jpg,1,5,stimuli/grey_butterfly.png,0,6,2020-12-22_10h07.41.780,premce3DEU_ses-02_part-01_label-phase1,2020.1.2,Win32,60,,,,,right,1,0.731605,0,18,18,18,1,,,,,,,,
,,,,,1,"[1,1,1,1,1,1,0,1,1,1,1,1,1,0,1,1,0,1,1,1,1,1,1,1,1,1,1,1,1,0,0,1,1,0,1,0,1,1,1,1,1,1,0,1,1,1,1,1,1,0,1,0,0,0,1,1,0,1,1,1,1,1,1,1,1,1,1,0,0,0,1,0,1,0,0,1,0,1,1,1,1,1,1,0,1,0,1,0,0,1,0,1,0,1,0,1,0,1,1,0,1,1,0,0,0,1,0,0,1,1,1,1,1,0,1,1,1,1,1,1,1,1,1,0,0,1,1,1,1,1,0,1,1,1,0,0,1,1,1,1]",1,,,,,,stimuli/white_butterfly.png,stimuli/grey_butterfly.png,1,stimuli/blue_flower.png,stimuli/red_flower.png,stimuli/green_flower.png,stimuli/yellow_flower.png,up,stimuli/objects/ironingboard01.jpg,1,5,stimuli/white_butterfly.png,0,6,2020-12-22_10h07.41.780,premce3DEU_ses-02_part-01_label-phase1,2020.1.2,Win32,60,,,,,up,1,0.813615,0,19,19,19,1,,,,,,,,
,,,,,1,"[1,1,1,1,1,1,0,1,1,1,1,1,1,0,1,1,0,1,1,1,1,1,1,1,1,1,1,1,1,0,0,1,1,0,1,0,1,1,1,1,1,1,0,1,1,1,1,1,1,0,1,0,0,0,1,1,0,1,1,1,1,1,1,1,1,1,1,0,0,0,1,0,1,0,0,1,0,1,1,1,1,1,1,0,1,0,1,0,0,1,0,1,0,1,0,1,0,1,1,0,1,1,0,0,0,1,0,0,1,1,1,1,1,0,1,1,1,1,1,1,1,1,1,0,0,1,1,1,1,1,0,1,1,1,0,0,1,1,1,1,1]",1,,,,,,stimuli/grey_butterfly.png,stimuli/white_butterfly.png,1,stimuli/red_flower.png,stimuli/green_flower.png,stimuli/blue_flower.png,stimuli/yellow_flower.png,up,stimuli/objects/cork02.jpg,1,5,stimuli/grey_butterfly.png,0,6,2020-12-22_10h07.41.780,premce3DEU_ses-02_part-01_label-phase1,2020.1.2,Win32,60,,,,,up,1,0.719615,0,20,20,20,1,,,,,,,,
,,,,,1,"[1,1,1,1,1,1,0,1,1,1,1,1,1,0,1,1,0,1,1,1,1,1,1,1,1,1,1,1,1,0,0,1,1,0,1,0,1,1,1,1,1,1,0,1,1,1,1,1,1,0,1,0,0,0,1,1,0,1,1,1,1,1,1,1,1,1,1,0,0,0,1,0,1,0,0,1,0,1,1,1,1,1,1,0,1,0,1,0,0,1,0,1,0,1,0,1,0,1,1,0,1,1,0,0,0,1,0,0,1,1,1,1,1,0,1,1,1,1,1,1,1,1,1,0,0,1,1,1,1,1,0,1,1,1,0,0,1,1,1,1,1,1]",1,,,,,,stimuli/grey_butterfly.png,stimuli/white_butterfly.png,2,stimuli/blue_flower.png,stimuli/green_flower.png,stimuli/yellow_flower.png,stimuli/red_flower.png,right,stimuli/objects/hockeystick.jpg,1,5,stimuli/white_butterfly.png,1,6,2020-12-22_10h07.41.780,premce3DEU_ses-02_part-01_label-phase1,2020.1.2,Win32,60,,,,,right,1,0.61505,0,21,21,21,1,,,,,,,,
,,,,,1,"[1,1,1,1,1,1,0,1,1,1,1,1,1,0,1,1,0,1,1,1,1,1,1,1,1,1,1,1,1,0,0,1,1,0,1,0,1,1,1,1,1,1,0,1,1,1,1,1,1,0,1,0,0,0,1,1,0,1,1,1,1,1,1,1,1,1,1,0,0,0,1,0,1,0,0,1,0,1,1,1,1,1,1,0,1,0,1,0,0,1,0,1,0,1,0,1,0,1,1,0,1,1,0,0,0,1,0,0,1,1,1,1,1,0,1,1,1,1,1,1,1,1,1,0,0,1,1,1,1,1,0,1,1,1,0,0,1,1,1,1,1,1,1]",1,,,,,,stimuli/grey_butterfly.png,stimuli/white_butterfly.png,1,stimuli/red_flower.png,stimuli/blue_flower.png,stimuli/green_flower.png,stimuli/yellow_flower.png,down,stimuli/objects/asianelephant.jpg,1,5,stimuli/grey_butterfly.png,1,6,2020-12-22_10h07.41.780,premce3DEU_ses-02_part-01_label-phase1,2020.1.2,Win32,60,,,,,down,1,0.704735,0,22,22,22,1,,,,,,,,
,,,,,1,"[1,1,1,1,1,1,0,1,1,1,1,1,1,0,1,1,0,1,1,1,1,1,1,1,1,1,1,1,1,0,0,1,1,0,1,0,1,1,1,1,1,1,0,1,1,1,1,1,1,0,1,0,0,0,1,1,0,1,1,1,1,1,1,1,1,1,1,0,0,0,1,0,1,0,0,1,0,1,1,1,1,1,1,0,1,0,1,0,0,1,0,1,0,1,0,1,0,1,1,0,1,1,0,0,0,1,0,0,1,1,1,1,1,0,1,1,1,1,1,1,1,1,1,0,0,1,1,1,1,1,0,1,1,1,0,0,1,1,1,1,1,1,1,1]",1,,,,,,stimuli/grey_butterfly.png,stimuli/white_butterfly.png,2,stimuli/yellow_flower.png,stimuli/red_flower.png,stimuli/blue_flower.png,stimuli/green_flower.png,up,stimuli/objects/jeans01.jpg,1,5,stimuli/white_butterfly.png,1,6,2020-12-22_10h07.41.780,premce3DEU_ses-02_part-01_label-phase1,2020.1.2,Win32,60,,,,,up,1,2.21368,0,23,23,23,1,,,,,,,,
,,,,,0,"[1,1,1,1,1,1,0,1,1,1,1,1,1,0,1,1,0,1,1,1,1,1,1,1,1,1,1,1,1,0,0,1,1,0,1,0,1,1,1,1,1,1,0,1,1,1,1,1,1,0,1,0,0,0,1,1,0,1,1,1,1,1,1,1,1,1,1,0,0,0,1,0,1,0,0,1,0,1,1,1,1,1,1,0,1,0,1,0,0,1,0,1,0,1,0,1,0,1,1,0,1,1,0,0,0,1,0,0,1,1,1,1,1,0,1,1,1,1,1,1,1,1,1,0,0,1,1,1,1,1,0,1,1,1,0,0,1,1,1,1,1,1,1,1,1]",1,,,,,,stimuli/white_butterfly.png,stimuli/grey_butterfly.png,2,stimuli/blue_flower.png,stimuli/green_flower.png,stimuli/yellow_flower.png,stimuli/red_flower.png,left,stimuli/objects/gps.jpg,0,5,stimuli/grey_butterfly.png,1,6,2020-12-22_10h07.41.780,premce3DEU_ses-02_part-01_label-phase1,2020.1.2,Win32,60,,,,,up,0,0.56268,0,24,24,24,1,,,,,,,,
,,,,,0,"[1,1,1,1,1,1,0,1,1,1,1,1,1,0,1,1,0,1,1,1,1,1,1,1,1,1,1,1,1,0,0,1,1,0,1,0,1,1,1,1,1,1,0,1,1,1,1,1,1,0,1,0,0,0,1,1,0,1,1,1,1,1,1,1,1,1,1,0,0,0,1,0,1,0,0,1,0,1,1,1,1,1,1,0,1,0,1,0,0,1,0,1,0,1,0,1,0,1,1,0,1,1,0,0,0,1,0,0,1,1,1,1,1,0,1,1,1,1,1,1,1,1,1,0,0,1,1,1,1,1,0,1,1,1,0,0,1,1,1,1,1,1,1,1,1]",0,,,,,,stimuli/white_butterfly.png,stimuli/grey_butterfly.png,2,stimuli/red_flower.png,stimuli/green_flower.png,stimuli/yellow_flower.png,stimuli/blue_flower.png,up,stimuli/objects/hockeypuck.jpg,1,5,stimuli/grey_butterfly.png,1,6,2020-12-22_10h07.41.780,premce3DEU_ses-02_part-01_label-phase1,2020.1.2,Win32,60,,,,,right,0,0.41624,0,25,25,25,1,,,,,,,,
,,,,,1,"[1,1,1,1,1,1,0,1,1,1,1,1,1,0,1,1,0,1,1,1,1,1,1,1,1,1,1,1,1,0,0,1,1,0,1,0,1,1,1,1,1,1,0,1,1,1,1,1,1,0,1,0,0,0,1,1,0,1,1,1,1,1,1,1,1,1,1,0,0,0,1,0,1,0,0,1,0,1,1,1,1,1,1,0,1,0,1,0,0,1,0,1,0,1,0,1,0,1,1,0,1,1,0,0,0,1,0,0,1,1,1,1,1,0,1,1,1,1,1,1,1,1,1,0,0,1,1,1,1,1,0,1,1,1,0,0,1,1,1,1,1,1,1,1,1,0]",1,,,,,,stimuli/grey_butterfly.png,stimuli/white_butterfly.png,1,stimuli/blue_flower.png,stimuli/red_flower.png,stimuli/green_flower.png,stimuli/yellow_flower.png,down,stimuli/objects/lantern03.jpg,1,5,stimuli/grey_butterfly.png,1,6,2020-12-22_10h07.41.780,premce3DEU_ses-02_part-01_label-phase1,2020.1.2,Win32,60,,,,,down,1,0.711065,0,26,26,26,1,,,,,,,,
,,,,,1,"[1,1,1,1,1,1,0,1,1,1,1,1,1,0,1,1,0,1,1,1,1,1,1,1,1,1,1,1,1,0,0,1,1,0,1,0,1,1,1,1,1,1,0,1,1,1,1,1,1,0,1,0,0,0,1,1,0,1,1,1,1,1,1,1,1,1,1,0,0,0,1,0,1,0,0,1,0,1,1,1,1,1,1,0,1,0,1,0,0,1,0,1,0,1,0,1,0,1,1,0,1,1,0,0,0,1,0,0,1,1,1,1,1,0,1,1,1,1,1,1,1,1,1,0,0,1,1,1,1,1,0,1,1,1,0,0,1,1,1,1,1,1,1,1,1,0,1]",1,,,,,,stimuli/white_butterfly.png,stimuli/grey_butterfly.png,2,stimuli/blue_flower.png,stimuli/red_flower.png,stimuli/green_flower.png,stimuli/yellow_flower.png,down,stimuli/objects/monarchbutterfly.jpg,1,5,stimuli/grey_butterfly.png,1,6,2020-12-22_10h07.41.780,premce3DEU_ses-02_part-01_label-phase1,2020.1.2,Win32,60,,,,,down,1,0.65535,0,27,27,27,1,,,,,,,,
,,,,,0,"[1,1,1,1,1,1,0,1,1,1,1,1,1,0,1,1,0,1,1,1,1,1,1,1,1,1,1,1,1,0,0,1,1,0,1,0,1,1,1,1,1,1,0,1,1,1,1,1,1,0,1,0,0,0,1,1,0,1,1,1,1,1,1,1,1,1,1,0,0,0,1,0,1,0,0,1,0,1,1,1,1,1,1,0,1,0,1,0,0,1,0,1,0,1,0,1,0,1,1,0,1,1,0,0,0,1,0,0,1,1,1,1,1,0,1,1,1,1,1,1,1,1,1,0,0,1,1,1,1,1,0,1,1,1,0,0,1,1,1,1,1,1,1,1,1,0,1,1]",0,,,,,,stimuli/grey_butterfly.png,stimuli/white_butterfly.png,1,stimuli/green_flower.png,stimuli/blue_flower.png,stimuli/red_flower.png,stimuli/yellow_flower.png,left,stimuli/objects/tulip02.jpg,1,5,stimuli/grey_butterfly.png,1,6,2020-12-22_10h07.41.780,premce3DEU_ses-02_part-01_label-phase1,2020.1.2,Win32,60,,,,,down,0,0.8306,0,28,28,28,1,,,,,,,,
,,,,,1,"[1,1,1,1,1,1,0,1,1,1,1,1,1,0,1,1,0,1,1,1,1,1,1,1,1,1,1,1,1,0,0,1,1,0,1,0,1,1,1,1,1,1,0,1,1,1,1,1,1,0,1,0,0,0,1,1,0,1,1,1,1,1,1,1,1,1,1,0,0,0,1,0,1,0,0,1,0,1,1,1,1,1,1,0,1,0,1,0,0,1,0,1,0,1,0,1,0,1,1,0,1,1,0,0,0,1,0,0,1,1,1,1,1,0,1,1,1,1,1,1,1,1,1,0,0,1,1,1,1,1,0,1,1,1,0,0,1,1,1,1,1,1,1,1,1,0,1,1,0]",1,,,,,,stimuli/white_butterfly.png,stimuli/grey_butterfly.png,1,stimuli/red_flower.png,stimuli/yellow_flower.png,stimuli/blue_flower.png,stimuli/green_flower.png,left,stimuli/objects/jellyfish.jpg,1,5,stimuli/white_butterfly.png,1,6,2020-12-22_10h07.41.780,premce3DEU_ses-02_part-01_label-phase1,2020.1.2,Win32,60,,,,,left,1,0.809935,0,29,29,29,1,,,,,,,,
,,,,,0,"[1,1,1,1,1,1,0,1,1,1,1,1,1,0,1,1,0,1,1,1,1,1,1,1,1,1,1,1,1,0,0,1,1,0,1,0,1,1,1,1,1,1,0,1,1,1,1,1,1,0,1,0,0,0,1,1,0,1,1,1,1,1,1,1,1,1,1,0,0,0,1,0,1,0,0,1,0,1,1,1,1,1,1,0,1,0,1,0,0,1,0,1,0,1,0,1,0,1,1,0,1,1,0,0,0,1,0,0,1,1,1,1,1,0,1,1,1,1,1,1,1,1,1,0,0,1,1,1,1,1,0,1,1,1,0,0,1,1,1,1,1,1,1,1,1,0,1,1,0,1]",1,,,,,,stimuli/grey_butterfly.png,stimuli/white_butterfly.png,2,stimuli/yellow_flower.png,stimuli/blue_flower.png,stimuli/green_flower.png,stimuli/red_flower.png,left,stimuli/objects/cremebrulee.jpg,0,5,stimuli/white_butterfly.png,1,6,2020-12-22_10h07.41.780,premce3DEU_ses-02_part-01_label-phase1,2020.1.2,Win32,60,,,,,right,0,0.52122,0,30,30,30,1,,,,,,,,
,,,,,1,"[1,1,1,1,1,1,0,1,1,1,1,1,1,0,1,1,0,1,1,1,1,1,1,1,1,1,1,1,1,0,0,1,1,0,1,0,1,1,1,1,1,1,0,1,1,1,1,1,1,0,1,0,0,0,1,1,0,1,1,1,1,1,1,1,1,1,1,0,0,0,1,0,1,0,0,1,0,1,1,1,1,1,1,0,1,0,1,0,0,1,0,1,0,1,0,1,0,1,1,0,1,1,0,0,0,1,0,0,1,1,1,1,1,0,1,1,1,1,1,1,1,1,1,0,0,1,1,1,1,1,0,1,1,1,0,0,1,1,1,1,1,1,1,1,1,0,1,1,0,1]",1,,,,,,stimuli/white_butterfly.png,stimuli/grey_butterfly.png,2,stimuli/yellow_flower.png,stimuli/green_flower.png,stimuli/blue_flower.png,stimuli/red_flower.png,up,stimuli/objects/callbell.jpg,1,5,stimuli/grey_butterfly.png,1,6,2020-12-22_10h07.41.780,premce3DEU_ses-02_part-01_label-phase1,2020.1.2,Win32,60,,,,,up,1,1.79166,0,31,31,31,1,,,,,,,,
,,,,,1,"[1,1,1,1,1,1,0,1,1,1,1,1,1,0,1,1,0,1,1,1,1,1,1,1,1,1,1,1,1,0,0,1,1,0,1,0,1,1,1,1,1,1,0,1,1,1,1,1,1,0,1,0,0,0,1,1,0,1,1,1,1,1,1,1,1,1,1,0,0,0,1,0,1,0,0,1,0,1,1,1,1,1,1,0,1,0,1,0,0,1,0,1,0,1,0,1,0,1,1,0,1,1,0,0,0,1,0,0,1,1,1,1,1,0,1,1,1,1,1,1,1,1,1,0,0,1,1,1,1,1,0,1,1,1,0,0,1,1,1,1,1,1,1,1,1,0,1,1,0,1,1]",1,,,,,,stimuli/grey_butterfly.png,stimuli/white_butterfly.png,2,stimuli/green_flower.png,stimuli/red_flower.png,stimuli/blue_flower.png,stimuli/yellow_flower.png,up,stimuli/objects/basketball01.jpg,1,5,stimuli/white_butterfly.png,1,6,2020-12-22_10h07.41.780,premce3DEU_ses-02_part-01_label-phase1,2020.1.2,Win32,60,,,,,up,1,0.807405,0,32,32,32,1,,,,,,,,
,,,,,1,"[1,1,1,1,1,1,0,1,1,1,1,1,1,0,1,1,0,1,1,1,1,1,1,1,1,1,1,1,1,0,0,1,1,0,1,0,1,1,1,1,1,1,0,1,1,1,1,1,1,0,1,0,0,0,1,1,0,1,1,1,1,1,1,1,1,1,1,0,0,0,1,0,1,0,0,1,0,1,1,1,1,1,1,0,1,0,1,0,0,1,0,1,0,1,0,1,0,1,1,0,1,1,0,0,0,1,0,0,1,1,1,1,1,0,1,1,1,1,1,1,1,1,1,0,0,1,1,1,1,1,0,1,1,1,0,0,1,1,1,1,1,1,1,1,1,0,1,1,0,1,1,1]",1,,,,,,stimuli/grey_butterfly.png,stimuli/white_butterfly.png,1,stimuli/red_flower.png,stimuli/yellow_flower.png,stimuli/blue_flower.png,stimuli/green_flower.png,right,stimuli/objects/jokercard.jpg,1,5,stimuli/grey_butterfly.png,1,6,2020-12-22_10h07.41.780,premce3DEU_ses-02_part-01_label-phase1,2020.1.2,Win32,60,,,,,right,1,0.50854,0,33,33,33,1,,,,,,,,
,,,,,1,"[1,1,1,1,1,1,0,1,1,1,1,1,1,0,1,1,0,1,1,1,1,1,1,1,1,1,1,1,1,0,0,1,1,0,1,0,1,1,1,1,1,1,0,1,1,1,1,1,1,0,1,0,0,0,1,1,0,1,1,1,1,1,1,1,1,1,1,0,0,0,1,0,1,0,0,1,0,1,1,1,1,1,1,0,1,0,1,0,0,1,0,1,0,1,0,1,0,1,1,0,1,1,0,0,0,1,0,0,1,1,1,1,1,0,1,1,1,1,1,1,1,1,1,0,0,1,1,1,1,1,0,1,1,1,0,0,1,1,1,1,1,1,1,1,1,0,1,1,0,1,1,1,1]",1,,,,,,stimuli/grey_butterfly.png,stimuli/white_butterfly.png,2,stimuli/red_flower.png,stimuli/green_flower.png,stimuli/blue_flower.png,stimuli/yellow_flower.png,left,stimuli/objects/soccerball.jpg,1,5,stimuli/white_butterfly.png,1,6,2020-12-22_10h07.41.780,premce3DEU_ses-02_part-01_label-phase1,2020.1.2,Win32,60,,,,,left,1,0.66645,0,34,34,34,1,,,,,,,,
,,,,,1,"[1,1,1,1,1,1,0,1,1,1,1,1,1,0,1,1,0,1,1,1,1,1,1,1,1,1,1,1,1,0,0,1,1,0,1,0,1,1,1,1,1,1,0,1,1,1,1,1,1,0,1,0,0,0,1,1,0,1,1,1,1,1,1,1,1,1,1,0,0,0,1,0,1,0,0,1,0,1,1,1,1,1,1,0,1,0,1,0,0,1,0,1,0,1,0,1,0,1,1,0,1,1,0,0,0,1,0,0,1,1,1,1,1,0,1,1,1,1,1,1,1,1,1,0,0,1,1,1,1,1,0,1,1,1,0,0,1,1,1,1,1,1,1,1,1,0,1,1,0,1,1,1,1,1]",1,,,,,,stimuli/grey_butterfly.png,stimuli/white_butterfly.png,2,stimuli/blue_flower.png,stimuli/red_flower.png,stimuli/yellow_flower.png,stimuli/green_flower.png,up,stimuli/objects/butterfly2.jpg,1,5,stimuli/white_butterfly.png,1,6,2020-12-22_10h07.41.780,premce3DEU_ses-02_part-01_label-phase1,2020.1.2,Win32,60,,,,,up,1,0.59809,0,35,35,35,1,,,,,,,,
,,,,,1,"[1,1,1,1,1,1,0,1,1,1,1,1,1,0,1,1,0,1,1,1,1,1,1,1,1,1,1,1,1,0,0,1,1,0,1,0,1,1,1,1,1,1,0,1,1,1,1,1,1,0,1,0,0,0,1,1,0,1,1,1,1,1,1,1,1,1,1,0,0,0,1,0,1,0,0,1,0,1,1,1,1,1,1,0,1,0,1,0,0,1,0,1,0,1,0,1,0,1,1,0,1,1,0,0,0,1,0,0,1,1,1,1,1,0,1,1,1,1,1,1,1,1,1,0,0,1,1,1,1,1,0,1,1,1,0,0,1,1,1,1,1,1,1,1,1,0,1,1,0,1,1,1,1,1,1]",1,,,,,,stimuli/white_butterfly.png,stimuli/grey_butterfly.png,2,stimuli/blue_flower.png,stimuli/yellow_flower.png,stimuli/green_flower.png,stimuli/red_flower.png,down,stimuli/objects/eyepatch.jpg,1,5,stimuli/grey_butterfly.png,1,6,2020-12-22_10h07.41.780,premce3DEU_ses-02_part-01_label-phase1,2020.1.2,Win32,60,,,,,down,1,0.817265,0,36,36,36,1,,,,,,,,
,,,,,1,"[1,1,1,1,1,1,0,1,1,1,1,1,1,0,1,1,0,1,1,1,1,1,1,1,1,1,1,1,1,0,0,1,1,0,1,0,1,1,1,1,1,1,0,1,1,1,1,1,1,0,1,0,0,0,1,1,0,1,1,1,1,1,1,1,1,1,1,0,0,0,1,0,1,0,0,1,0,1,1,1,1,1,1,0,1,0,1,0,0,1,0,1,0,1,0,1,0,1,1,0,1,1,0,0,0,1,0,0,1,1,1,1,1,0,1,1,1,1,1,1,1,1,1,0,0,1,1,1,1,1,0,1,1,1,0,0,1,1,1,1,1,1,1,1,1,0,1,1,0,1,1,1,1,1,1,1]",1,,,,,,stimuli/grey_butterfly.png,stimuli/white_butterfly.png,2,stimuli/red_flower.png,stimuli/yellow_flower.png,stimuli/blue_flower.png,stimuli/green_flower.png,left,stimuli/objects/cashregister01.jpg,1,5,stimuli/white_butterfly.png,1,6,2020-12-22_10h07.41.780,premce3DEU_ses-02_part-01_label-phase1,2020.1.2,Win32,60,,,,,left,1,0.728825,0,37,37,37,1,,,,,,,,
,,,,,0,"[1,1,1,1,1,1,0,1,1,1,1,1,1,0,1,1,0,1,1,1,1,1,1,1,1,1,1,1,1,0,0,1,1,0,1,0,1,1,1,1,1,1,0,1,1,1,1,1,1,0,1,0,0,0,1,1,0,1,1,1,1,1,1,1,1,1,1,0,0,0,1,0,1,0,0,1,0,1,1,1,1,1,1,0,1,0,1,0,0,1,0,1,0,1,0,1,0,1,1,0,1,1,0,0,0,1,0,0,1,1,1,1,1,0,1,1,1,1,1,1,1,1,1,0,0,1,1,1,1,1,0,1,1,1,0,0,1,1,1,1,1,1,1,1,1,0,1,1,0,1,1,1,1,1,1,1,1]",1,,,,,,stimuli/white_butterfly.png,stimuli/grey_butterfly.png,1,stimuli/blue_flower.png,stimuli/green_flower.png,stimuli/red_flower.png,stimuli/yellow_flower.png,up,stimuli/objects/jellybean.jpg,0,5,stimuli/white_butterfly.png,1,6,2020-12-22_10h07.41.780,premce3DEU_ses-02_part-01_label-phase1,2020.1.2,Win32,60,,,,,down,0,0.76354,0,38,38,38,1,,,,,,,,
,,,,,0,"[1,1,1,1,1,1,0,1,1,1,1,1,1,0,1,1,0,1,1,1,1,1,1,1,1,1,1,1,1,0,0,1,1,0,1,0,1,1,1,1,1,1,0,1,1,1,1,1,1,0,1,0,0,0,1,1,0,1,1,1,1,1,1,1,1,1,1,0,0,0,1,0,1,0,0,1,0,1,1,1,1,1,1,0,1,0,1,0,0,1,0,1,0,1,0,1,0,1,1,0,1,1,0,0,0,1,0,0,1,1,1,1,1,0,1,1,1,1,1,1,1,1,1,0,0,1,1,1,1,1,0,1,1,1,0,0,1,1,1,1,1,1,1,1,1,0,1,1,0,1,1,1,1,1,1,1,1]",0,,,,,,stimuli/grey_butterfly.png,stimuli/white_butterfly.png,2,stimuli/blue_flower.png,stimuli/yellow_flower.png,stimuli/green_flower.png,stimuli/red_flower.png,right,stimuli/objects/balcony02.jpg,1,5,stimuli/white_butterfly.png,1,6,2020-12-22_10h07.41.780,premce3DEU_ses-02_part-01_label-phase1,2020.1.2,Win32,60,,,,,down,0,1.085455,0,39,39,39,1,,,,,,,,
,,,,,1,"[1,1,1,1,1,1,0,1,1,1,1,1,1,0,1,1,0,1,1,1,1,1,1,1,1,1,1,1,1,0,0,1,1,0,1,0,1,1,1,1,1,1,0,1,1,1,1,1,1,0,1,0,0,0,1,1,0,1,1,1,1,1,1,1,1,1,1,0,0,0,1,0,1,0,0,1,0,1,1,1,1,1,1,0,1,0,1,0,0,1,0,1,0,1,0,1,0,1,1,0,1,1,0,0,0,1,0,0,1,1,1,1,1,0,1,1,1,1,1,1,1,1,1,0,0,1,1,1,1,1,0,1,1,1,0,0,1,1,1,1,1,1,1,1,1,0,1,1,0,1,1,1,1,1,1,1,1,0]",1,,,,,,stimuli/white_butterfly.png,stimuli/grey_butterfly.png,2,stimuli/green_flower.png,stimuli/yellow_flower.png,stimuli/red_flower.png,stimuli/blue_flower.png,left,stimuli/objects/fingerprint.jpg,1,5,stimuli/grey_butterfly.png,1,6,2020-12-22_10h07.41.780,premce3DEU_ses-02_part-01_label-phase1,2020.1.2,Win32,60,,,,,left,1,0.737695,0,40,40,40,1,,,,,,,,
,,,,,0,"[1,1,1,1,1,1,0,1,1,1,1,1,1,0,1,1,0,1,1,1,1,1,1,1,1,1,1,1,1,0,0,1,1,0,1,0,1,1,1,1,1,1,0,1,1,1,1,1,1,0,1,0,0,0,1,1,0,1,1,1,1,1,1,1,1,1,1,0,0,0,1,0,1,0,0,1,0,1,1,1,1,1,1,0,1,0,1,0,0,1,0,1,0,1,0,1,0,1,1,0,1,1,0,0,0,1,0,0,1,1,1,1,1,0,1,1,1,1,1,1,1,1,1,0,0,1,1,1,1,1,0,1,1,1,0,0,1,1,1,1,1,1,1,1,1,0,1,1,0,1,1,1,1,1,1,1,1,0,1]",1,,,,,,stimuli/grey_butterfly.png,stimuli/white_butterfly.png,2,stimuli/yellow_flower.png,stimuli/red_flower.png,stimuli/green_flower.png,stimuli/blue_flower.png,right,stimuli/objects/bolt01a.jpg,0,5,stimuli/white_butterfly.png,1,6,2020-12-22_10h07.41.780,premce3DEU_ses-02_part-01_label-phase1,2020.1.2,Win32,60,,,,,up,0,0.527155,0,41,41,41,1,,,,,,,,
,,,,,,,,,,,,,,,,,,,,,,,,,,6,2020-12-22_10h07.41.780,premce3DEU_ses-02_part-01_label-phase1,2020.1.2,Win32,60,,,,,,,,,,,,,,,,,,,space,18.37828
