Instr_resp_2.keys,Instr_resp_2.rt,warmup_resp.keys,warmup_resp.corr,warmup_resp.rt,myownaccuracy,respcorrs,myownaccuracyCORR,trials.thisRepN,trials.thisTrialN,trials.thisN,trials.thisIndex,trials.ran,first_butterfly,second_butterfly,Cue,left_flower,top_flower,bottom_flower,right_flower,corr_ans,obj_file,trial_cond,switch_cond,cuedButter,trial_type,participant,date,expName,psychopyVersion,OS,frameRate,Instr_resp.keys,Instr_resp.rt,taskGoresp.keys,taskGoresp.rt,task_resp_3.keys,task_resp_3.corr,task_resp_3.rt,task_loop.thisRepN,task_loop.thisTrialN,task_loop.thisN,task_loop.thisIndex,task_loop.ran,list_loop.thisRepN,list_loop.thisTrialN,list_loop.thisN,list_loop.thisIndex,list_loop.ran,list,key_resp.keys,key_resp.rt
space,7.785,up,0,0.576,0,[],0,0,0,0,9,1,stimuli/white_butterfly.png,stimuli/grey_butterfly.png,1,stimuli/blue_flower.png,stimuli/red_flower.png,stimuli/yellow_flower.png,stimuli/green_flower.png,left,stimuli/objects/skunk.jpg,1,99,stimuli/white_butterfly.png,0,7,2020-12-22_15h34.33.053,premce3DEU_ses-02_part-01_label-phase1,2020.1.2,Win32,60,,,,,,,,,,,,,,,,,,,,
,,right,1,0.467,1,[0],1,0,1,1,4,1,stimuli/white_butterfly.png,stimuli/grey_butterfly.png,1,stimuli/green_flower.png,stimuli/red_flower.png,stimuli/yellow_flower.png,stimuli/blue_flower.png,right,stimuli/objects/tire.jpg,1,99,stimuli/white_butterfly.png,0,7,2020-12-22_15h34.33.053,premce3DEU_ses-02_part-01_label-phase1,2020.1.2,Win32,60,,,,,,,,,,,,,,,,,,,,
,,left,1,0.846,1,"[0,1]",1,0,2,2,8,1,stimuli/white_butterfly.png,stimuli/grey_butterfly.png,2,stimuli/red_flower.png,stimuli/blue_flower.png,stimuli/green_flower.png,stimuli/yellow_flower.png,left,stimuli/objects/shelf.jpg,1,99,stimuli/grey_butterfly.png,0,7,2020-12-22_15h34.33.053,premce3DEU_ses-02_part-01_label-phase1,2020.1.2,Win32,60,,,,,,,,,,,,,,,,,,,,
,,right,1,0.476,1,"[0,1,1]",1,0,3,3,16,1,stimuli/grey_butterfly.png,stimuli/white_butterfly.png,2,stimuli/red_flower.png,stimuli/yellow_flower.png,stimuli/green_flower.png,stimuli/blue_flower.png,right,stimuli/objects/foosballtable.jpg,1,99,stimuli/white_butterfly.png,1,7,2020-12-22_15h34.33.053,premce3DEU_ses-02_part-01_label-phase1,2020.1.2,Win32,60,,,,,,,,,,,,,,,,,,,,
,,up,1,0.496,1,"[0,1,1,1]",1,0,4,4,2,1,stimuli/white_butterfly.png,stimuli/grey_butterfly.png,2,stimuli/blue_flower.png,stimuli/red_flower.png,stimuli/yellow_flower.png,stimuli/green_flower.png,up,stimuli/objects/corn02.jpg,1,99,stimuli/grey_butterfly.png,0,7,2020-12-22_15h34.33.053,premce3DEU_ses-02_part-01_label-phase1,2020.1.2,Win32,60,,,,,,,,,,,,,,,,,,,,
,,up,1,0.711,1,"[0,1,1,1,1]",1,0,5,5,1,1,stimuli/white_butterfly.png,stimuli/grey_butterfly.png,2,stimuli/yellow_flower.png,stimuli/red_flower.png,stimuli/blue_flower.png,stimuli/green_flower.png,up,stimuli/objects/marble.jpg,1,99,stimuli/grey_butterfly.png,0,7,2020-12-22_15h34.33.053,premce3DEU_ses-02_part-01_label-phase1,2020.1.2,Win32,60,,,,,,,,,,,,,,,,,,,,
,,down,1,0.617,1,"[0,1,1,1,1,1]",1,0,6,6,7,1,stimuli/grey_butterfly.png,stimuli/white_butterfly.png,2,stimuli/red_flower.png,stimuli/green_flower.png,stimuli/blue_flower.png,stimuli/yellow_flower.png,down,stimuli/objects/firehydrant.jpg,1,99,stimuli/white_butterfly.png,0,7,2020-12-22_15h34.33.053,premce3DEU_ses-02_part-01_label-phase1,2020.1.2,Win32,60,,,,,,,,,,,,,,,,,,,,
,,left,1,0.696,1,"[0,1,1,1,1,1,1]",1,0,7,7,15,1,stimuli/grey_butterfly.png,stimuli/white_butterfly.png,1,stimuli/red_flower.png,stimuli/yellow_flower.png,stimuli/blue_flower.png,stimuli/green_flower.png,left,stimuli/objects/wheat.jpg,1,99,stimuli/grey_butterfly.png,1,7,2020-12-22_15h34.33.053,premce3DEU_ses-02_part-01_label-phase1,2020.1.2,Win32,60,,,,,,,,,,,,,,,,,,,,
,,down,0,1.013,0,"[0,1,1,1,1,1,1,1]",1,0,8,8,3,1,stimuli/white_butterfly.png,stimuli/grey_butterfly.png,2,stimuli/green_flower.png,stimuli/blue_flower.png,stimuli/red_flower.png,stimuli/yellow_flower.png,left,stimuli/objects/cigar.jpg,0,99,stimuli/grey_butterfly.png,0,7,2020-12-22_15h34.33.053,premce3DEU_ses-02_part-01_label-phase1,2020.1.2,Win32,60,,,,,,,,,,,,,,,,,,,,
,,down,1,0.751,1,"[0,1,1,1,1,1,1,1]",1,0,9,9,5,1,stimuli/white_butterfly.png,stimuli/grey_butterfly.png,1,stimuli/green_flower.png,stimuli/red_flower.png,stimuli/blue_flower.png,stimuli/yellow_flower.png,down,stimuli/objects/birdfeeder.jpg,1,99,stimuli/white_butterfly.png,0,7,2020-12-22_15h34.33.053,premce3DEU_ses-02_part-01_label-phase1,2020.1.2,Win32,60,,,,,,,,,,,,,,,,,,,,
,,up,0,0.694,0,"[0,1,1,1,1,1,1,1,1]",1,0,10,10,17,1,stimuli/grey_butterfly.png,stimuli/white_butterfly.png,1,stimuli/red_flower.png,stimuli/green_flower.png,stimuli/yellow_flower.png,stimuli/blue_flower.png,down,stimuli/objects/butterfly4.jpg,0,99,stimuli/grey_butterfly.png,1,7,2020-12-22_15h34.33.053,premce3DEU_ses-02_part-01_label-phase1,2020.1.2,Win32,60,,,,,,,,,,,,,,,,,,,,
,,down,0,1.703,0,"[0,1,1,1,1,1,1,1,1]",0,0,11,11,14,1,stimuli/grey_butterfly.png,stimuli/white_butterfly.png,1,stimuli/blue_flower.png,stimuli/red_flower.png,stimuli/yellow_flower.png,stimuli/green_flower.png,up,stimuli/objects/shed02.jpg,1,99,stimuli/grey_butterfly.png,1,7,2020-12-22_15h34.33.053,premce3DEU_ses-02_part-01_label-phase1,2020.1.2,Win32,60,,,,,,,,,,,,,,,,,,,,
,,down,1,0.623,1,"[0,1,1,1,1,1,1,1,1,0]",1,0,12,12,12,1,stimuli/white_butterfly.png,stimuli/grey_butterfly.png,1,stimuli/yellow_flower.png,stimuli/red_flower.png,stimuli/blue_flower.png,stimuli/green_flower.png,down,stimuli/objects/toolbox02.jpg,1,99,stimuli/white_butterfly.png,1,7,2020-12-22_15h34.33.053,premce3DEU_ses-02_part-01_label-phase1,2020.1.2,Win32,60,,,,,,,,,,,,,,,,,,,,
,,left,0,0.599,0,"[0,1,1,1,1,1,1,1,1,0,1]",1,0,13,13,18,1,stimuli/grey_butterfly.png,stimuli/white_butterfly.png,2,stimuli/blue_flower.png,stimuli/yellow_flower.png,stimuli/green_flower.png,stimuli/red_flower.png,up,stimuli/objects/armadillo.jpg,0,99,stimuli/white_butterfly.png,1,7,2020-12-22_15h34.33.053,premce3DEU_ses-02_part-01_label-phase1,2020.1.2,Win32,60,,,,,,,,,,,,,,,,,,,,
,,left,0,0.795,0,"[0,1,1,1,1,1,1,1,1,0,1]",1,0,14,14,13,1,stimuli/grey_butterfly.png,stimuli/white_butterfly.png,2,stimuli/blue_flower.png,stimuli/red_flower.png,stimuli/yellow_flower.png,stimuli/green_flower.png,up,stimuli/objects/payphone.jpg,0,99,stimuli/white_butterfly.png,1,7,2020-12-22_15h34.33.053,premce3DEU_ses-02_part-01_label-phase1,2020.1.2,Win32,60,,,,,,,,,,,,,,,,,,,,
,,right,1,1.147,1,"[0,1,1,1,1,1,1,1,1,0,1]",1,0,15,15,6,1,stimuli/grey_butterfly.png,stimuli/white_butterfly.png,1,stimuli/green_flower.png,stimuli/yellow_flower.png,stimuli/blue_flower.png,stimuli/red_flower.png,right,stimuli/objects/flipflop01b.jpg,1,99,stimuli/grey_butterfly.png,0,7,2020-12-22_15h34.33.053,premce3DEU_ses-02_part-01_label-phase1,2020.1.2,Win32,60,,,,,,,,,,,,,,,,,,,,
,,right,0,0.901,0,"[0,1,1,1,1,1,1,1,1,0,1,1]",1,0,16,16,11,1,stimuli/white_butterfly.png,stimuli/grey_butterfly.png,2,stimuli/blue_flower.png,stimuli/green_flower.png,stimuli/yellow_flower.png,stimuli/red_flower.png,left,stimuli/objects/bookshelf.jpg,0,99,stimuli/grey_butterfly.png,1,7,2020-12-22_15h34.33.053,premce3DEU_ses-02_part-01_label-phase1,2020.1.2,Win32,60,,,,,,,,,,,,,,,,,,,,
,,right,1,0.515,1,"[0,1,1,1,1,1,1,1,1,0,1,1]",1,0,17,17,0,1,stimuli/grey_butterfly.png,stimuli/white_butterfly.png,2,stimuli/green_flower.png,stimuli/red_flower.png,stimuli/yellow_flower.png,stimuli/blue_flower.png,right,stimuli/objects/tennisracket.jpg,1,99,stimuli/white_butterfly.png,0,7,2020-12-22_15h34.33.053,premce3DEU_ses-02_part-01_label-phase1,2020.1.2,Win32,60,,,,,,,,,,,,,,,,,,,,
,,up,1,0.868,1,"[0,1,1,1,1,1,1,1,1,0,1,1,1]",1,0,18,18,19,1,stimuli/grey_butterfly.png,stimuli/white_butterfly.png,2,stimuli/yellow_flower.png,stimuli/blue_flower.png,stimuli/red_flower.png,stimuli/green_flower.png,up,stimuli/objects/motorcycle.jpg,1,99,stimuli/white_butterfly.png,1,7,2020-12-22_15h34.33.053,premce3DEU_ses-02_part-01_label-phase1,2020.1.2,Win32,60,,,,,,,,,,,,,,,,,,,,
,,right,1,0.532,1,"[0,1,1,1,1,1,1,1,1,0,1,1,1,1]",1,0,19,19,20,1,stimuli/white_butterfly.png,stimuli/grey_butterfly.png,2,stimuli/green_flower.png,stimuli/blue_flower.png,stimuli/yellow_flower.png,stimuli/red_flower.png,right,stimuli/objects/toucan.jpg,1,99,stimuli/grey_butterfly.png,1,7,2020-12-22_15h34.33.053,premce3DEU_ses-02_part-01_label-phase1,2020.1.2,Win32,60,,,,,,,,,,,,,,,,,,,,
,,down,0,0.828,0,"[0,1,1,1,1,1,1,1,1,0,1,1,1,1,1]",1,0,20,20,10,1,stimuli/white_butterfly.png,stimuli/grey_butterfly.png,1,stimuli/green_flower.png,stimuli/yellow_flower.png,stimuli/blue_flower.png,stimuli/red_flower.png,left,stimuli/objects/anchor.jpg,0,99,stimuli/white_butterfly.png,0,7,2020-12-22_15h34.33.053,premce3DEU_ses-02_part-01_label-phase1,2020.1.2,Win32,60,,,,,,,,,,,,,,,,,,,,
,,,,,0,"[0,1,1,1,1,1,1,1,1,0,1,1,1,1,1]",0,,,,,,stimuli/white_butterfly.png,stimuli/grey_butterfly.png,1,stimuli/blue_flower.png,stimuli/red_flower.png,stimuli/green_flower.png,stimuli/yellow_flower.png,left,stimuli/objects/treestump.jpg,1,2,stimuli/white_butterfly.png,0,7,2020-12-22_15h34.33.053,premce3DEU_ses-02_part-01_label-phase1,2020.1.2,Win32,60,space,17.968,space,1.715,up,0,0.94,0,0,0,0,1,,,,,,,,
,,,,,0,"[0,1,1,1,1,1,1,1,1,0,1,1,1,1,1,0]",0,,,,,,stimuli/grey_butterfly.png,stimuli/white_butterfly.png,2,stimuli/yellow_flower.png,stimuli/green_flower.png,stimuli/blue_flower.png,stimuli/red_flower.png,up,stimuli/objects/trombone.jpg,0,2,stimuli/white_butterfly.png,0,7,2020-12-22_15h34.33.053,premce3DEU_ses-02_part-01_label-phase1,2020.1.2,Win32,60,,,,,down,0,0.744,0,1,1,1,1,,,,,,,,
,,,,,0,"[0,1,1,1,1,1,1,1,1,0,1,1,1,1,1,0]",0,,,,,,stimuli/white_butterfly.png,stimuli/grey_butterfly.png,1,stimuli/green_flower.png,stimuli/blue_flower.png,stimuli/red_flower.png,stimuli/yellow_flower.png,down,stimuli/objects/tent.jpg,0,2,stimuli/white_butterfly.png,0,7,2020-12-22_15h34.33.053,premce3DEU_ses-02_part-01_label-phase1,2020.1.2,Win32,60,,,,,up,0,1.127,0,2,2,2,1,,,,,,,,
,,,,,0,"[0,1,1,1,1,1,1,1,1,0,1,1,1,1,1,0]",0,,,,,,stimuli/grey_butterfly.png,stimuli/white_butterfly.png,1,stimuli/yellow_flower.png,stimuli/green_flower.png,stimuli/red_flower.png,stimuli/blue_flower.png,left,stimuli/objects/cruiseship.jpg,0,2,stimuli/grey_butterfly.png,0,7,2020-12-22_15h34.33.053,premce3DEU_ses-02_part-01_label-phase1,2020.1.2,Win32,60,,,,,up,0,0.899,0,3,3,3,1,,,,,,,,
,,,,,1,"[0,1,1,1,1,1,1,1,1,0,1,1,1,1,1,0]",1,,,,,,stimuli/grey_butterfly.png,stimuli/white_butterfly.png,2,stimuli/blue_flower.png,stimuli/red_flower.png,stimuli/yellow_flower.png,stimuli/green_flower.png,left,stimuli/objects/spicerack.jpg,1,2,stimuli/white_butterfly.png,0,7,2020-12-22_15h34.33.053,premce3DEU_ses-02_part-01_label-phase1,2020.1.2,Win32,60,,,,,left,1,0.84,0,4,4,4,1,,,,,,,,
,,,,,0,"[0,1,1,1,1,1,1,1,1,0,1,1,1,1,1,0,1]",0,,,,,,stimuli/white_butterfly.png,stimuli/grey_butterfly.png,2,stimuli/yellow_flower.png,stimuli/green_flower.png,stimuli/red_flower.png,stimuli/blue_flower.png,down,stimuli/objects/football.jpg,1,2,stimuli/grey_butterfly.png,0,7,2020-12-22_15h34.33.053,premce3DEU_ses-02_part-01_label-phase1,2020.1.2,Win32,60,,,,,left,0,0.907,0,5,5,5,1,,,,,,,,
,,,,,1,"[0,1,1,1,1,1,1,1,1,0,1,1,1,1,1,0,1,0]",1,,,,,,stimuli/white_butterfly.png,stimuli/grey_butterfly.png,1,stimuli/green_flower.png,stimuli/yellow_flower.png,stimuli/red_flower.png,stimuli/blue_flower.png,right,stimuli/objects/bowlingpin.jpg,1,2,stimuli/white_butterfly.png,0,7,2020-12-22_15h34.33.053,premce3DEU_ses-02_part-01_label-phase1,2020.1.2,Win32,60,,,,,right,1,0.526,0,6,6,6,1,,,,,,,,
,,,,,1,"[0,1,1,1,1,1,1,1,1,0,1,1,1,1,1,0,1,0,1]",1,,,,,,stimuli/white_butterfly.png,stimuli/grey_butterfly.png,1,stimuli/blue_flower.png,stimuli/yellow_flower.png,stimuli/green_flower.png,stimuli/red_flower.png,left,stimuli/objects/beerbottle.jpg,1,2,stimuli/white_butterfly.png,0,7,2020-12-22_15h34.33.053,premce3DEU_ses-02_part-01_label-phase1,2020.1.2,Win32,60,,,,,left,1,0.975,0,7,7,7,1,,,,,,,,
,,,,,1,"[0,1,1,1,1,1,1,1,1,0,1,1,1,1,1,0,1,0,1,1]",1,,,,,,stimuli/white_butterfly.png,stimuli/grey_butterfly.png,1,stimuli/red_flower.png,stimuli/yellow_flower.png,stimuli/green_flower.png,stimuli/blue_flower.png,right,stimuli/objects/key07.jpg,1,2,stimuli/white_butterfly.png,0,7,2020-12-22_15h34.33.053,premce3DEU_ses-02_part-01_label-phase1,2020.1.2,Win32,60,,,,,right,1,0.644,0,8,8,8,1,,,,,,,,
,,,,,1,"[0,1,1,1,1,1,1,1,1,0,1,1,1,1,1,0,1,0,1,1,1]",1,,,,,,stimuli/grey_butterfly.png,stimuli/white_butterfly.png,1,stimuli/green_flower.png,stimuli/red_flower.png,stimuli/blue_flower.png,stimuli/yellow_flower.png,up,stimuli/objects/moon.jpg,1,2,stimuli/grey_butterfly.png,0,7,2020-12-22_15h34.33.053,premce3DEU_ses-02_part-01_label-phase1,2020.1.2,Win32,60,,,,,up,1,0.545,0,9,9,9,1,,,,,,,,
,,,,,1,"[0,1,1,1,1,1,1,1,1,0,1,1,1,1,1,0,1,0,1,1,1,1]",1,,,,,,stimuli/white_butterfly.png,stimuli/grey_butterfly.png,2,stimuli/green_flower.png,stimuli/blue_flower.png,stimuli/yellow_flower.png,stimuli/red_flower.png,right,stimuli/objects/exitsign.jpg,1,2,stimuli/grey_butterfly.png,0,7,2020-12-22_15h34.33.053,premce3DEU_ses-02_part-01_label-phase1,2020.1.2,Win32,60,,,,,right,1,0.656,0,10,10,10,1,,,,,,,,
,,,,,1,"[0,1,1,1,1,1,1,1,1,0,1,1,1,1,1,0,1,0,1,1,1,1,1]",1,,,,,,stimuli/grey_butterfly.png,stimuli/white_butterfly.png,2,stimuli/yellow_flower.png,stimuli/blue_flower.png,stimuli/red_flower.png,stimuli/green_flower.png,up,stimuli/objects/wheelchair.jpg,1,2,stimuli/white_butterfly.png,0,7,2020-12-22_15h34.33.053,premce3DEU_ses-02_part-01_label-phase1,2020.1.2,Win32,60,,,,,up,1,0.596,0,11,11,11,1,,,,,,,,
,,,,,1,"[0,1,1,1,1,1,1,1,1,0,1,1,1,1,1,0,1,0,1,1,1,1,1,1]",1,,,,,,stimuli/grey_butterfly.png,stimuli/white_butterfly.png,2,stimuli/green_flower.png,stimuli/red_flower.png,stimuli/blue_flower.png,stimuli/yellow_flower.png,down,stimuli/objects/file.jpg,1,2,stimuli/white_butterfly.png,0,7,2020-12-22_15h34.33.053,premce3DEU_ses-02_part-01_label-phase1,2020.1.2,Win32,60,,,,,down,1,1.544,0,12,12,12,1,,,,,,,,
,,,,,1,"[0,1,1,1,1,1,1,1,1,0,1,1,1,1,1,0,1,0,1,1,1,1,1,1,1]",1,,,,,,stimuli/grey_butterfly.png,stimuli/white_butterfly.png,1,stimuli/green_flower.png,stimuli/yellow_flower.png,stimuli/red_flower.png,stimuli/blue_flower.png,down,stimuli/objects/pirateflag.jpg,1,2,stimuli/grey_butterfly.png,0,7,2020-12-22_15h34.33.053,premce3DEU_ses-02_part-01_label-phase1,2020.1.2,Win32,60,,,,,down,1,1.023,0,13,13,13,1,,,,,,,,
,,,,,1,"[0,1,1,1,1,1,1,1,1,0,1,1,1,1,1,0,1,0,1,1,1,1,1,1,1,1]",1,,,,,,stimuli/grey_butterfly.png,stimuli/white_butterfly.png,1,stimuli/red_flower.png,stimuli/green_flower.png,stimuli/blue_flower.png,stimuli/yellow_flower.png,left,stimuli/objects/butterfly1.jpg,1,2,stimuli/grey_butterfly.png,0,7,2020-12-22_15h34.33.053,premce3DEU_ses-02_part-01_label-phase1,2020.1.2,Win32,60,,,,,left,1,0.977,0,14,14,14,1,,,,,,,,
,,,,,0,"[0,1,1,1,1,1,1,1,1,0,1,1,1,1,1,0,1,0,1,1,1,1,1,1,1,1,1]",1,,,,,,stimuli/white_butterfly.png,stimuli/grey_butterfly.png,2,stimuli/green_flower.png,stimuli/blue_flower.png,stimuli/red_flower.png,stimuli/yellow_flower.png,left,stimuli/objects/christmaslights.jpg,0,2,stimuli/grey_butterfly.png,0,7,2020-12-22_15h34.33.053,premce3DEU_ses-02_part-01_label-phase1,2020.1.2,Win32,60,,,,,down,0,0.678,0,15,15,15,1,,,,,,,,
,,,,,1,"[0,1,1,1,1,1,1,1,1,0,1,1,1,1,1,0,1,0,1,1,1,1,1,1,1,1,1]",1,,,,,,stimuli/grey_butterfly.png,stimuli/white_butterfly.png,2,stimuli/blue_flower.png,stimuli/green_flower.png,stimuli/red_flower.png,stimuli/yellow_flower.png,left,stimuli/objects/seagull.jpg,1,2,stimuli/white_butterfly.png,0,7,2020-12-22_15h34.33.053,premce3DEU_ses-02_part-01_label-phase1,2020.1.2,Win32,60,,,,,left,1,1.116,0,16,16,16,1,,,,,,,,
,,,,,1,"[0,1,1,1,1,1,1,1,1,0,1,1,1,1,1,0,1,0,1,1,1,1,1,1,1,1,1,1]",1,,,,,,stimuli/grey_butterfly.png,stimuli/white_butterfly.png,2,stimuli/yellow_flower.png,stimuli/red_flower.png,stimuli/green_flower.png,stimuli/blue_flower.png,right,stimuli/objects/fluorescentlightbulb.jpg,1,2,stimuli/white_butterfly.png,0,7,2020-12-22_15h34.33.053,premce3DEU_ses-02_part-01_label-phase1,2020.1.2,Win32,60,,,,,right,1,0.727,0,17,17,17,1,,,,,,,,
,,,,,1,"[0,1,1,1,1,1,1,1,1,0,1,1,1,1,1,0,1,0,1,1,1,1,1,1,1,1,1,1,1]",1,,,,,,stimuli/white_butterfly.png,stimuli/grey_butterfly.png,1,stimuli/red_flower.png,stimuli/blue_flower.png,stimuli/yellow_flower.png,stimuli/green_flower.png,up,stimuli/objects/xylophone.jpg,1,2,stimuli/white_butterfly.png,0,7,2020-12-22_15h34.33.053,premce3DEU_ses-02_part-01_label-phase1,2020.1.2,Win32,60,,,,,up,1,0.874,0,18,18,18,1,,,,,,,,
,,,,,0,"[0,1,1,1,1,1,1,1,1,0,1,1,1,1,1,0,1,0,1,1,1,1,1,1,1,1,1,1,1,1]",0,,,,,,stimuli/grey_butterfly.png,stimuli/white_butterfly.png,1,stimuli/red_flower.png,stimuli/blue_flower.png,stimuli/green_flower.png,stimuli/yellow_flower.png,left,stimuli/objects/basketball01.jpg,1,2,stimuli/grey_butterfly.png,0,7,2020-12-22_15h34.33.053,premce3DEU_ses-02_part-01_label-phase1,2020.1.2,Win32,60,,,,,down,0,2.059,0,19,19,19,1,,,,,,,,
,,,,,0,"[0,1,1,1,1,1,1,1,1,0,1,1,1,1,1,0,1,0,1,1,1,1,1,1,1,1,1,1,1,1,0]",0,,,,,,stimuli/white_butterfly.png,stimuli/grey_butterfly.png,2,stimuli/blue_flower.png,stimuli/green_flower.png,stimuli/yellow_flower.png,stimuli/red_flower.png,left,stimuli/objects/star.jpg,0,2,stimuli/grey_butterfly.png,0,7,2020-12-22_15h34.33.053,premce3DEU_ses-02_part-01_label-phase1,2020.1.2,Win32,60,,,,,right,0,1.126,0,20,20,20,1,,,,,,,,
,,,,,1,"[0,1,1,1,1,1,1,1,1,0,1,1,1,1,1,0,1,0,1,1,1,1,1,1,1,1,1,1,1,1,0]",1,,,,,,stimuli/grey_butterfly.png,stimuli/white_butterfly.png,1,stimuli/green_flower.png,stimuli/blue_flower.png,stimuli/red_flower.png,stimuli/yellow_flower.png,down,stimuli/objects/shelves.jpg,1,2,stimuli/grey_butterfly.png,1,7,2020-12-22_15h34.33.053,premce3DEU_ses-02_part-01_label-phase1,2020.1.2,Win32,60,,,,,down,1,1.66,0,21,21,21,1,,,,,,,,
,,,,,1,"[0,1,1,1,1,1,1,1,1,0,1,1,1,1,1,0,1,0,1,1,1,1,1,1,1,1,1,1,1,1,0,1]",1,,,,,,stimuli/white_butterfly.png,stimuli/grey_butterfly.png,2,stimuli/yellow_flower.png,stimuli/red_flower.png,stimuli/green_flower.png,stimuli/blue_flower.png,up,stimuli/objects/cork02.jpg,1,2,stimuli/grey_butterfly.png,1,7,2020-12-22_15h34.33.053,premce3DEU_ses-02_part-01_label-phase1,2020.1.2,Win32,60,,,,,up,1,0.623,0,22,22,22,1,,,,,,,,
,,,,,1,"[0,1,1,1,1,1,1,1,1,0,1,1,1,1,1,0,1,0,1,1,1,1,1,1,1,1,1,1,1,1,0,1,1]",1,,,,,,stimuli/grey_butterfly.png,stimuli/white_butterfly.png,1,stimuli/red_flower.png,stimuli/yellow_flower.png,stimuli/blue_flower.png,stimuli/green_flower.png,left,stimuli/objects/cloud.jpg,1,2,stimuli/grey_butterfly.png,1,7,2020-12-22_15h34.33.053,premce3DEU_ses-02_part-01_label-phase1,2020.1.2,Win32,60,,,,,left,1,0.67,0,23,23,23,1,,,,,,,,
,,,,,0,"[0,1,1,1,1,1,1,1,1,0,1,1,1,1,1,0,1,0,1,1,1,1,1,1,1,1,1,1,1,1,0,1,1,1]",1,,,,,,stimuli/grey_butterfly.png,stimuli/white_butterfly.png,2,stimuli/red_flower.png,stimuli/green_flower.png,stimuli/yellow_flower.png,stimuli/blue_flower.png,down,stimuli/objects/rollerblade.jpg,0,2,stimuli/white_butterfly.png,1,7,2020-12-22_15h34.33.053,premce3DEU_ses-02_part-01_label-phase1,2020.1.2,Win32,60,,,,,right,0,0.546,0,24,24,24,1,,,,,,,,
,,,,,1,"[0,1,1,1,1,1,1,1,1,0,1,1,1,1,1,0,1,0,1,1,1,1,1,1,1,1,1,1,1,1,0,1,1,1]",1,,,,,,stimuli/white_butterfly.png,stimuli/grey_butterfly.png,2,stimuli/red_flower.png,stimuli/blue_flower.png,stimuli/yellow_flower.png,stimuli/green_flower.png,left,stimuli/objects/beaver.jpg,1,2,stimuli/grey_butterfly.png,1,7,2020-12-22_15h34.33.053,premce3DEU_ses-02_part-01_label-phase1,2020.1.2,Win32,60,,,,,left,1,0.579,0,25,25,25,1,,,,,,,,
,,,,,1,"[0,1,1,1,1,1,1,1,1,0,1,1,1,1,1,0,1,0,1,1,1,1,1,1,1,1,1,1,1,1,0,1,1,1,1]",1,,,,,,stimuli/grey_butterfly.png,stimuli/white_butterfly.png,1,stimuli/yellow_flower.png,stimuli/blue_flower.png,stimuli/green_flower.png,stimuli/red_flower.png,right,stimuli/objects/urinal.jpg,1,2,stimuli/grey_butterfly.png,1,7,2020-12-22_15h34.33.053,premce3DEU_ses-02_part-01_label-phase1,2020.1.2,Win32,60,,,,,right,1,0.461,0,26,26,26,1,,,,,,,,
,,,,,1,"[0,1,1,1,1,1,1,1,1,0,1,1,1,1,1,0,1,0,1,1,1,1,1,1,1,1,1,1,1,1,0,1,1,1,1,1]",1,,,,,,stimuli/white_butterfly.png,stimuli/grey_butterfly.png,2,stimuli/red_flower.png,stimuli/yellow_flower.png,stimuli/green_flower.png,stimuli/blue_flower.png,left,stimuli/objects/tulip02.jpg,1,2,stimuli/grey_butterfly.png,1,7,2020-12-22_15h34.33.053,premce3DEU_ses-02_part-01_label-phase1,2020.1.2,Win32,60,,,,,left,1,0.617,0,27,27,27,1,,,,,,,,
,,,,,0,"[0,1,1,1,1,1,1,1,1,0,1,1,1,1,1,0,1,0,1,1,1,1,1,1,1,1,1,1,1,1,0,1,1,1,1,1,1]",0,,,,,,stimuli/grey_butterfly.png,stimuli/white_butterfly.png,2,stimuli/blue_flower.png,stimuli/red_flower.png,stimuli/green_flower.png,stimuli/yellow_flower.png,left,stimuli/objects/horse.jpg,1,2,stimuli/white_butterfly.png,1,7,2020-12-22_15h34.33.053,premce3DEU_ses-02_part-01_label-phase1,2020.1.2,Win32,60,,,,,up,0,0.535,0,28,28,28,1,,,,,,,,
,,,,,1,"[0,1,1,1,1,1,1,1,1,0,1,1,1,1,1,0,1,0,1,1,1,1,1,1,1,1,1,1,1,1,0,1,1,1,1,1,1,0]",1,,,,,,stimuli/grey_butterfly.png,stimuli/white_butterfly.png,1,stimuli/green_flower.png,stimuli/red_flower.png,stimuli/yellow_flower.png,stimuli/blue_flower.png,up,stimuli/objects/musicstand.jpg,1,2,stimuli/grey_butterfly.png,1,7,2020-12-22_15h34.33.053,premce3DEU_ses-02_part-01_label-phase1,2020.1.2,Win32,60,,,,,up,1,0.48,0,29,29,29,1,,,,,,,,
,,,,,1,"[0,1,1,1,1,1,1,1,1,0,1,1,1,1,1,0,1,0,1,1,1,1,1,1,1,1,1,1,1,1,0,1,1,1,1,1,1,0,1]",1,,,,,,stimuli/white_butterfly.png,stimuli/grey_butterfly.png,1,stimuli/green_flower.png,stimuli/red_flower.png,stimuli/yellow_flower.png,stimuli/blue_flower.png,right,stimuli/objects/frisbee.jpg,1,2,stimuli/white_butterfly.png,1,7,2020-12-22_15h34.33.053,premce3DEU_ses-02_part-01_label-phase1,2020.1.2,Win32,60,,,,,right,1,0.481,0,30,30,30,1,,,,,,,,
,,,,,1,"[0,1,1,1,1,1,1,1,1,0,1,1,1,1,1,0,1,0,1,1,1,1,1,1,1,1,1,1,1,1,0,1,1,1,1,1,1,0,1,1]",1,,,,,,stimuli/white_butterfly.png,stimuli/grey_butterfly.png,2,stimuli/yellow_flower.png,stimuli/red_flower.png,stimuli/blue_flower.png,stimuli/green_flower.png,up,stimuli/objects/footballhelmet.jpg,1,2,stimuli/grey_butterfly.png,1,7,2020-12-22_15h34.33.053,premce3DEU_ses-02_part-01_label-phase1,2020.1.2,Win32,60,,,,,up,1,0.46,0,31,31,31,1,,,,,,,,
,,,,,1,"[0,1,1,1,1,1,1,1,1,0,1,1,1,1,1,0,1,0,1,1,1,1,1,1,1,1,1,1,1,1,0,1,1,1,1,1,1,0,1,1,1]",1,,,,,,stimuli/grey_butterfly.png,stimuli/white_butterfly.png,2,stimuli/blue_flower.png,stimuli/yellow_flower.png,stimuli/green_flower.png,stimuli/red_flower.png,left,stimuli/objects/soccerball.jpg,1,2,stimuli/white_butterfly.png,1,7,2020-12-22_15h34.33.053,premce3DEU_ses-02_part-01_label-phase1,2020.1.2,Win32,60,,,,,left,1,0.52,0,32,32,32,1,,,,,,,,
,,,,,1,"[0,1,1,1,1,1,1,1,1,0,1,1,1,1,1,0,1,0,1,1,1,1,1,1,1,1,1,1,1,1,0,1,1,1,1,1,1,0,1,1,1,1]",1,,,,,,stimuli/grey_butterfly.png,stimuli/white_butterfly.png,1,stimuli/red_flower.png,stimuli/blue_flower.png,stimuli/yellow_flower.png,stimuli/green_flower.png,left,stimuli/objects/windshieldwiper02.jpg,1,2,stimuli/grey_butterfly.png,1,7,2020-12-22_15h34.33.053,premce3DEU_ses-02_part-01_label-phase1,2020.1.2,Win32,60,,,,,left,1,0.606,0,33,33,33,1,,,,,,,,
,,,,,1,"[0,1,1,1,1,1,1,1,1,0,1,1,1,1,1,0,1,0,1,1,1,1,1,1,1,1,1,1,1,1,0,1,1,1,1,1,1,0,1,1,1,1,1]",1,,,,,,stimuli/grey_butterfly.png,stimuli/white_butterfly.png,2,stimuli/green_flower.png,stimuli/red_flower.png,stimuli/yellow_flower.png,stimuli/blue_flower.png,right,stimuli/objects/windturbine.jpg,1,2,stimuli/white_butterfly.png,1,7,2020-12-22_15h34.33.053,premce3DEU_ses-02_part-01_label-phase1,2020.1.2,Win32,60,,,,,right,1,0.475,0,34,34,34,1,,,,,,,,
,,,,,1,"[0,1,1,1,1,1,1,1,1,0,1,1,1,1,1,0,1,0,1,1,1,1,1,1,1,1,1,1,1,1,0,1,1,1,1,1,1,0,1,1,1,1,1,1]",1,,,,,,stimuli/grey_butterfly.png,stimuli/white_butterfly.png,1,stimuli/green_flower.png,stimuli/yellow_flower.png,stimuli/blue_flower.png,stimuli/red_flower.png,right,stimuli/objects/butterfly2.jpg,1,2,stimuli/grey_butterfly.png,1,7,2020-12-22_15h34.33.053,premce3DEU_ses-02_part-01_label-phase1,2020.1.2,Win32,60,,,,,right,1,0.731,0,35,35,35,1,,,,,,,,
,,,,,1,"[0,1,1,1,1,1,1,1,1,0,1,1,1,1,1,0,1,0,1,1,1,1,1,1,1,1,1,1,1,1,0,1,1,1,1,1,1,0,1,1,1,1,1,1,1]",1,,,,,,stimuli/white_butterfly.png,stimuli/grey_butterfly.png,1,stimuli/blue_flower.png,stimuli/red_flower.png,stimuli/yellow_flower.png,stimuli/green_flower.png,left,stimuli/objects/blender.jpg,1,2,stimuli/white_butterfly.png,1,7,2020-12-22_15h34.33.053,premce3DEU_ses-02_part-01_label-phase1,2020.1.2,Win32,60,,,,,left,1,0.47,0,36,36,36,1,,,,,,,,
,,,,,1,"[0,1,1,1,1,1,1,1,1,0,1,1,1,1,1,0,1,0,1,1,1,1,1,1,1,1,1,1,1,1,0,1,1,1,1,1,1,0,1,1,1,1,1,1,1,1]",1,,,,,,stimuli/grey_butterfly.png,stimuli/white_butterfly.png,2,stimuli/green_flower.png,stimuli/yellow_flower.png,stimuli/blue_flower.png,stimuli/red_flower.png,down,stimuli/objects/rockingchair.jpg,1,2,stimuli/white_butterfly.png,1,7,2020-12-22_15h34.33.053,premce3DEU_ses-02_part-01_label-phase1,2020.1.2,Win32,60,,,,,down,1,0.999,0,37,37,37,1,,,,,,,,
,,,,,1,"[0,1,1,1,1,1,1,1,1,0,1,1,1,1,1,0,1,0,1,1,1,1,1,1,1,1,1,1,1,1,0,1,1,1,1,1,1,0,1,1,1,1,1,1,1,1,1]",1,,,,,,stimuli/grey_butterfly.png,stimuli/white_butterfly.png,2,stimuli/green_flower.png,stimuli/yellow_flower.png,stimuli/red_flower.png,stimuli/blue_flower.png,right,stimuli/objects/desktopcomputer.jpg,1,2,stimuli/white_butterfly.png,1,7,2020-12-22_15h34.33.053,premce3DEU_ses-02_part-01_label-phase1,2020.1.2,Win32,60,,,,,right,1,0.62,0,38,38,38,1,,,,,,,,
,,,,,1,"[0,1,1,1,1,1,1,1,1,0,1,1,1,1,1,0,1,0,1,1,1,1,1,1,1,1,1,1,1,1,0,1,1,1,1,1,1,0,1,1,1,1,1,1,1,1,1,1]",1,,,,,,stimuli/white_butterfly.png,stimuli/grey_butterfly.png,2,stimuli/green_flower.png,stimuli/red_flower.png,stimuli/blue_flower.png,stimuli/yellow_flower.png,up,stimuli/objects/tricycle.jpg,1,2,stimuli/grey_butterfly.png,1,7,2020-12-22_15h34.33.053,premce3DEU_ses-02_part-01_label-phase1,2020.1.2,Win32,60,,,,,up,1,0.634,0,39,39,39,1,,,,,,,,
,,,,,1,"[0,1,1,1,1,1,1,1,1,0,1,1,1,1,1,0,1,0,1,1,1,1,1,1,1,1,1,1,1,1,0,1,1,1,1,1,1,0,1,1,1,1,1,1,1,1,1,1,1]",1,,,,,,stimuli/grey_butterfly.png,stimuli/white_butterfly.png,1,stimuli/blue_flower.png,stimuli/yellow_flower.png,stimuli/green_flower.png,stimuli/red_flower.png,right,stimuli/objects/dreamcatcher.jpg,1,2,stimuli/grey_butterfly.png,1,7,2020-12-22_15h34.33.053,premce3DEU_ses-02_part-01_label-phase1,2020.1.2,Win32,60,,,,,right,1,0.526,0,40,40,40,1,,,,,,,,
,,,,,1,"[0,1,1,1,1,1,1,1,1,0,1,1,1,1,1,0,1,0,1,1,1,1,1,1,1,1,1,1,1,1,0,1,1,1,1,1,1,0,1,1,1,1,1,1,1,1,1,1,1,1]",1,,,,,,stimuli/grey_butterfly.png,stimuli/white_butterfly.png,2,stimuli/green_flower.png,stimuli/blue_flower.png,stimuli/red_flower.png,stimuli/yellow_flower.png,up,stimuli/objects/contactlens.jpg,1,2,stimuli/white_butterfly.png,1,7,2020-12-22_15h34.33.053,premce3DEU_ses-02_part-01_label-phase1,2020.1.2,Win32,60,,,,,up,1,0.536,0,41,41,41,1,,,,,,,,
,,,,,,,,,,,,,,,,,,,,,,,,,,7,2020-12-22_15h34.33.053,premce3DEU_ses-02_part-01_label-phase1,2020.1.2,Win32,60,,,,,,,,,,,,,0,0,0,0,1,condition_files/tasklistAplus4.csv,,
,,,,,0,"[0,1,1,1,1,1,1,1,1,0,1,1,1,1,1,0,1,0,1,1,1,1,1,1,1,1,1,1,1,1,0,1,1,1,1,1,1,0,1,1,1,1,1,1,1,1,1,1,1,1,1]",0,,,,,,stimuli/grey_butterfly.png,stimuli/white_butterfly.png,2,stimuli/yellow_flower.png,stimuli/blue_flower.png,stimuli/red_flower.png,stimuli/green_flower.png,right,stimuli/objects/sailboat.jpg,1,3,stimuli/white_butterfly.png,0,7,2020-12-22_15h34.33.053,premce3DEU_ses-02_part-01_label-phase1,2020.1.2,Win32,60,,,,,up,0,0.469,0,0,0,0,1,,,,,,,,
,,,,,0,"[0,1,1,1,1,1,1,1,1,0,1,1,1,1,1,0,1,0,1,1,1,1,1,1,1,1,1,1,1,1,0,1,1,1,1,1,1,0,1,1,1,1,1,1,1,1,1,1,1,1,1,0]",0,,,,,,stimuli/white_butterfly.png,stimuli/grey_butterfly.png,1,stimuli/red_flower.png,stimuli/blue_flower.png,stimuli/yellow_flower.png,stimuli/green_flower.png,right,stimuli/objects/asianelephant.jpg,1,3,stimuli/white_butterfly.png,0,7,2020-12-22_15h34.33.053,premce3DEU_ses-02_part-01_label-phase1,2020.1.2,Win32,60,,,,,up,0,0.414,0,1,1,1,1,,,,,,,,
,,,,,0,"[0,1,1,1,1,1,1,1,1,0,1,1,1,1,1,0,1,0,1,1,1,1,1,1,1,1,1,1,1,1,0,1,1,1,1,1,1,0,1,1,1,1,1,1,1,1,1,1,1,1,1,0,0]",0,,,,,,stimuli/white_butterfly.png,stimuli/grey_butterfly.png,2,stimuli/green_flower.png,stimuli/yellow_flower.png,stimuli/blue_flower.png,stimuli/red_flower.png,up,stimuli/objects/triangle.jpg,1,3,stimuli/grey_butterfly.png,0,7,2020-12-22_15h34.33.053,premce3DEU_ses-02_part-01_label-phase1,2020.1.2,Win32,60,,,,,right,0,0.579,0,2,2,2,1,,,,,,,,
,,,,,1,"[0,1,1,1,1,1,1,1,1,0,1,1,1,1,1,0,1,0,1,1,1,1,1,1,1,1,1,1,1,1,0,1,1,1,1,1,1,0,1,1,1,1,1,1,1,1,1,1,1,1,1,0,0,0]",1,,,,,,stimuli/white_butterfly.png,stimuli/grey_butterfly.png,1,stimuli/blue_flower.png,stimuli/red_flower.png,stimuli/yellow_flower.png,stimuli/green_flower.png,right,stimuli/objects/redonion.jpg,1,3,stimuli/white_butterfly.png,0,7,2020-12-22_15h34.33.053,premce3DEU_ses-02_part-01_label-phase1,2020.1.2,Win32,60,,,,,right,1,0.783,0,3,3,3,1,,,,,,,,
,,,,,0,"[0,1,1,1,1,1,1,1,1,0,1,1,1,1,1,0,1,0,1,1,1,1,1,1,1,1,1,1,1,1,0,1,1,1,1,1,1,0,1,1,1,1,1,1,1,1,1,1,1,1,1,0,0,0,1]",1,,,,,,stimuli/white_butterfly.png,stimuli/grey_butterfly.png,1,stimuli/yellow_flower.png,stimuli/green_flower.png,stimuli/blue_flower.png,stimuli/red_flower.png,left,stimuli/objects/barn.jpg,0,3,stimuli/white_butterfly.png,0,7,2020-12-22_15h34.33.053,premce3DEU_ses-02_part-01_label-phase1,2020.1.2,Win32,60,,,,,up,0,0.659,0,4,4,4,1,,,,,,,,
,,,,,0,"[0,1,1,1,1,1,1,1,1,0,1,1,1,1,1,0,1,0,1,1,1,1,1,1,1,1,1,1,1,1,0,1,1,1,1,1,1,0,1,1,1,1,1,1,1,1,1,1,1,1,1,0,0,0,1]",0,,,,,,stimuli/white_butterfly.png,stimuli/grey_butterfly.png,2,stimuli/yellow_flower.png,stimuli/red_flower.png,stimuli/blue_flower.png,stimuli/green_flower.png,left,stimuli/objects/acorn.jpg,1,3,stimuli/grey_butterfly.png,0,7,2020-12-22_15h34.33.053,premce3DEU_ses-02_part-01_label-phase1,2020.1.2,Win32,60,,,,,up,0,0.71,0,5,5,5,1,,,,,,,,
,,,,,1,"[0,1,1,1,1,1,1,1,1,0,1,1,1,1,1,0,1,0,1,1,1,1,1,1,1,1,1,1,1,1,0,1,1,1,1,1,1,0,1,1,1,1,1,1,1,1,1,1,1,1,1,0,0,0,1,0]",1,,,,,,stimuli/grey_butterfly.png,stimuli/white_butterfly.png,2,stimuli/blue_flower.png,stimuli/yellow_flower.png,stimuli/green_flower.png,stimuli/red_flower.png,down,stimuli/objects/communitymailbox.jpg,1,3,stimuli/white_butterfly.png,0,7,2020-12-22_15h34.33.053,premce3DEU_ses-02_part-01_label-phase1,2020.1.2,Win32,60,,,,,down,1,0.683,0,6,6,6,1,,,,,,,,
,,,,,0,"[0,1,1,1,1,1,1,1,1,0,1,1,1,1,1,0,1,0,1,1,1,1,1,1,1,1,1,1,1,1,0,1,1,1,1,1,1,0,1,1,1,1,1,1,1,1,1,1,1,1,1,0,0,0,1,0,1]",0,,,,,,stimuli/grey_butterfly.png,stimuli/white_butterfly.png,2,stimuli/blue_flower.png,stimuli/green_flower.png,stimuli/yellow_flower.png,stimuli/red_flower.png,up,stimuli/objects/handheldtelescope.jpg,1,3,stimuli/white_butterfly.png,0,7,2020-12-22_15h34.33.053,premce3DEU_ses-02_part-01_label-phase1,2020.1.2,Win32,60,,,,,down,0,1.788,0,7,7,7,1,,,,,,,,
,,,,,1,"[0,1,1,1,1,1,1,1,1,0,1,1,1,1,1,0,1,0,1,1,1,1,1,1,1,1,1,1,1,1,0,1,1,1,1,1,1,0,1,1,1,1,1,1,1,1,1,1,1,1,1,0,0,0,1,0,1,0]",1,,,,,,stimuli/white_butterfly.png,stimuli/grey_butterfly.png,2,stimuli/blue_flower.png,stimuli/green_flower.png,stimuli/red_flower.png,stimuli/yellow_flower.png,right,stimuli/objects/callbell.jpg,1,3,stimuli/grey_butterfly.png,0,7,2020-12-22_15h34.33.053,premce3DEU_ses-02_part-01_label-phase1,2020.1.2,Win32,60,,,,,right,1,0.499,0,8,8,8,1,,,,,,,,
,,,,,1,"[0,1,1,1,1,1,1,1,1,0,1,1,1,1,1,0,1,0,1,1,1,1,1,1,1,1,1,1,1,1,0,1,1,1,1,1,1,0,1,1,1,1,1,1,1,1,1,1,1,1,1,0,0,0,1,0,1,0,1]",1,,,,,,stimuli/grey_butterfly.png,stimuli/white_butterfly.png,2,stimuli/green_flower.png,stimuli/blue_flower.png,stimuli/yellow_flower.png,stimuli/red_flower.png,left,stimuli/objects/candycane01a.jpg,1,3,stimuli/white_butterfly.png,0,7,2020-12-22_15h34.33.053,premce3DEU_ses-02_part-01_label-phase1,2020.1.2,Win32,60,,,,,left,1,1.396,0,9,9,9,1,,,,,,,,
,,,,,1,"[0,1,1,1,1,1,1,1,1,0,1,1,1,1,1,0,1,0,1,1,1,1,1,1,1,1,1,1,1,1,0,1,1,1,1,1,1,0,1,1,1,1,1,1,1,1,1,1,1,1,1,0,0,0,1,0,1,0,1,1]",1,,,,,,stimuli/white_butterfly.png,stimuli/grey_butterfly.png,2,stimuli/red_flower.png,stimuli/blue_flower.png,stimuli/yellow_flower.png,stimuli/green_flower.png,down,stimuli/objects/coffeemaker.jpg,1,3,stimuli/grey_butterfly.png,0,7,2020-12-22_15h34.33.053,premce3DEU_ses-02_part-01_label-phase1,2020.1.2,Win32,60,,,,,down,1,0.799,0,10,10,10,1,,,,,,,,
,,,,,1,"[0,1,1,1,1,1,1,1,1,0,1,1,1,1,1,0,1,0,1,1,1,1,1,1,1,1,1,1,1,1,0,1,1,1,1,1,1,0,1,1,1,1,1,1,1,1,1,1,1,1,1,0,0,0,1,0,1,0,1,1,1]",1,,,,,,stimuli/grey_butterfly.png,stimuli/white_butterfly.png,2,stimuli/yellow_flower.png,stimuli/red_flower.png,stimuli/green_flower.png,stimuli/blue_flower.png,down,stimuli/objects/electricguitar01.jpg,1,3,stimuli/white_butterfly.png,0,7,2020-12-22_15h34.33.053,premce3DEU_ses-02_part-01_label-phase1,2020.1.2,Win32,60,,,,,down,1,0.756,0,11,11,11,1,,,,,,,,
,,,,,1,"[0,1,1,1,1,1,1,1,1,0,1,1,1,1,1,0,1,0,1,1,1,1,1,1,1,1,1,1,1,1,0,1,1,1,1,1,1,0,1,1,1,1,1,1,1,1,1,1,1,1,1,0,0,0,1,0,1,0,1,1,1,1]",1,,,,,,stimuli/white_butterfly.png,stimuli/grey_butterfly.png,2,stimuli/yellow_flower.png,stimuli/red_flower.png,stimuli/green_flower.png,stimuli/blue_flower.png,left,stimuli/objects/weddingcake.jpg,1,3,stimuli/grey_butterfly.png,0,7,2020-12-22_15h34.33.053,premce3DEU_ses-02_part-01_label-phase1,2020.1.2,Win32,60,,,,,left,1,0.537,0,12,12,12,1,,,,,,,,
,,,,,1,"[0,1,1,1,1,1,1,1,1,0,1,1,1,1,1,0,1,0,1,1,1,1,1,1,1,1,1,1,1,1,0,1,1,1,1,1,1,0,1,1,1,1,1,1,1,1,1,1,1,1,1,0,0,0,1,0,1,0,1,1,1,1,1]",1,,,,,,stimuli/grey_butterfly.png,stimuli/white_butterfly.png,1,stimuli/yellow_flower.png,stimuli/blue_flower.png,stimuli/red_flower.png,stimuli/green_flower.png,left,stimuli/objects/balcony02.jpg,1,3,stimuli/grey_butterfly.png,0,7,2020-12-22_15h34.33.053,premce3DEU_ses-02_part-01_label-phase1,2020.1.2,Win32,60,,,,,left,1,0.71,0,13,13,13,1,,,,,,,,
,,,,,1,"[0,1,1,1,1,1,1,1,1,0,1,1,1,1,1,0,1,0,1,1,1,1,1,1,1,1,1,1,1,1,0,1,1,1,1,1,1,0,1,1,1,1,1,1,1,1,1,1,1,1,1,0,0,0,1,0,1,0,1,1,1,1,1,1]",1,,,,,,stimuli/white_butterfly.png,stimuli/grey_butterfly.png,2,stimuli/blue_flower.png,stimuli/red_flower.png,stimuli/green_flower.png,stimuli/yellow_flower.png,right,stimuli/objects/cashregister01.jpg,1,3,stimuli/grey_butterfly.png,0,7,2020-12-22_15h34.33.053,premce3DEU_ses-02_part-01_label-phase1,2020.1.2,Win32,60,,,,,right,1,0.529,0,14,14,14,1,,,,,,,,
,,,,,1,"[0,1,1,1,1,1,1,1,1,0,1,1,1,1,1,0,1,0,1,1,1,1,1,1,1,1,1,1,1,1,0,1,1,1,1,1,1,0,1,1,1,1,1,1,1,1,1,1,1,1,1,0,0,0,1,0,1,0,1,1,1,1,1,1,1]",1,,,,,,stimuli/grey_butterfly.png,stimuli/white_butterfly.png,2,stimuli/green_flower.png,stimuli/yellow_flower.png,stimuli/blue_flower.png,stimuli/red_flower.png,left,stimuli/objects/doubledoors.jpg,1,3,stimuli/white_butterfly.png,0,7,2020-12-22_15h34.33.053,premce3DEU_ses-02_part-01_label-phase1,2020.1.2,Win32,60,,,,,left,1,0.587,0,15,15,15,1,,,,,,,,
,,,,,1,"[0,1,1,1,1,1,1,1,1,0,1,1,1,1,1,0,1,0,1,1,1,1,1,1,1,1,1,1,1,1,0,1,1,1,1,1,1,0,1,1,1,1,1,1,1,1,1,1,1,1,1,0,0,0,1,0,1,0,1,1,1,1,1,1,1,1]",1,,,,,,stimuli/white_butterfly.png,stimuli/grey_butterfly.png,1,stimuli/green_flower.png,stimuli/red_flower.png,stimuli/yellow_flower.png,stimuli/blue_flower.png,left,stimuli/objects/butterfly3.jpg,1,3,stimuli/white_butterfly.png,0,7,2020-12-22_15h34.33.053,premce3DEU_ses-02_part-01_label-phase1,2020.1.2,Win32,60,,,,,left,1,0.636,0,16,16,16,1,,,,,,,,
,,,,,0,"[0,1,1,1,1,1,1,1,1,0,1,1,1,1,1,0,1,0,1,1,1,1,1,1,1,1,1,1,1,1,0,1,1,1,1,1,1,0,1,1,1,1,1,1,1,1,1,1,1,1,1,0,0,0,1,0,1,0,1,1,1,1,1,1,1,1,1]",1,,,,,,stimuli/grey_butterfly.png,stimuli/white_butterfly.png,1,stimuli/blue_flower.png,stimuli/yellow_flower.png,stimuli/red_flower.png,stimuli/green_flower.png,down,stimuli/objects/car.jpg,0,3,stimuli/grey_butterfly.png,0,7,2020-12-22_15h34.33.053,premce3DEU_ses-02_part-01_label-phase1,2020.1.2,Win32,60,,,,,up,0,0.602,0,17,17,17,1,,,,,,,,
,,,,,0,"[0,1,1,1,1,1,1,1,1,0,1,1,1,1,1,0,1,0,1,1,1,1,1,1,1,1,1,1,1,1,0,1,1,1,1,1,1,0,1,1,1,1,1,1,1,1,1,1,1,1,1,0,0,0,1,0,1,0,1,1,1,1,1,1,1,1,1]",0,,,,,,stimuli/grey_butterfly.png,stimuli/white_butterfly.png,2,stimuli/green_flower.png,stimuli/red_flower.png,stimuli/yellow_flower.png,stimuli/blue_flower.png,left,stimuli/objects/waterfountain02.jpg,1,3,stimuli/white_butterfly.png,0,7,2020-12-22_15h34.33.053,premce3DEU_ses-02_part-01_label-phase1,2020.1.2,Win32,60,,,,,down,0,1.122,0,18,18,18,1,,,,,,,,
,,,,,0,"[0,1,1,1,1,1,1,1,1,0,1,1,1,1,1,0,1,0,1,1,1,1,1,1,1,1,1,1,1,1,0,1,1,1,1,1,1,0,1,1,1,1,1,1,1,1,1,1,1,1,1,0,0,0,1,0,1,0,1,1,1,1,1,1,1,1,1,0]",0,,,,,,stimuli/grey_butterfly.png,stimuli/white_butterfly.png,1,stimuli/yellow_flower.png,stimuli/red_flower.png,stimuli/green_flower.png,stimuli/blue_flower.png,left,stimuli/objects/panda.jpg,1,3,stimuli/grey_butterfly.png,0,7,2020-12-22_15h34.33.053,premce3DEU_ses-02_part-01_label-phase1,2020.1.2,Win32,60,,,,,down,0,1.235,0,19,19,19,1,,,,,,,,
,,,,,1,"[0,1,1,1,1,1,1,1,1,0,1,1,1,1,1,0,1,0,1,1,1,1,1,1,1,1,1,1,1,1,0,1,1,1,1,1,1,0,1,1,1,1,1,1,1,1,1,1,1,1,1,0,0,0,1,0,1,0,1,1,1,1,1,1,1,1,1,0,0]",1,,,,,,stimuli/white_butterfly.png,stimuli/grey_butterfly.png,1,stimuli/red_flower.png,stimuli/green_flower.png,stimuli/yellow_flower.png,stimuli/blue_flower.png,up,stimuli/objects/greywolf.jpg,1,3,stimuli/white_butterfly.png,0,7,2020-12-22_15h34.33.053,premce3DEU_ses-02_part-01_label-phase1,2020.1.2,Win32,60,,,,,up,1,0.571,0,20,20,20,1,,,,,,,,
,,,,,0,"[0,1,1,1,1,1,1,1,1,0,1,1,1,1,1,0,1,0,1,1,1,1,1,1,1,1,1,1,1,1,0,1,1,1,1,1,1,0,1,1,1,1,1,1,1,1,1,1,1,1,1,0,0,0,1,0,1,0,1,1,1,1,1,1,1,1,1,0,0,1]",1,,,,,,stimuli/grey_butterfly.png,stimuli/white_butterfly.png,1,stimuli/red_flower.png,stimuli/green_flower.png,stimuli/yellow_flower.png,stimuli/blue_flower.png,up,stimuli/objects/tie02.jpg,0,3,stimuli/grey_butterfly.png,1,7,2020-12-22_15h34.33.053,premce3DEU_ses-02_part-01_label-phase1,2020.1.2,Win32,60,,,,,down,0,0.464,0,21,21,21,1,,,,,,,,
,,,,,1,"[0,1,1,1,1,1,1,1,1,0,1,1,1,1,1,0,1,0,1,1,1,1,1,1,1,1,1,1,1,1,0,1,1,1,1,1,1,0,1,1,1,1,1,1,1,1,1,1,1,1,1,0,0,0,1,0,1,0,1,1,1,1,1,1,1,1,1,0,0,1]",1,,,,,,stimuli/white_butterfly.png,stimuli/grey_butterfly.png,1,stimuli/yellow_flower.png,stimuli/blue_flower.png,stimuli/green_flower.png,stimuli/red_flower.png,down,stimuli/objects/forklift.jpg,1,3,stimuli/white_butterfly.png,1,7,2020-12-22_15h34.33.053,premce3DEU_ses-02_part-01_label-phase1,2020.1.2,Win32,60,,,,,down,1,1.168,0,22,22,22,1,,,,,,,,
,,,,,1,"[0,1,1,1,1,1,1,1,1,0,1,1,1,1,1,0,1,0,1,1,1,1,1,1,1,1,1,1,1,1,0,1,1,1,1,1,1,0,1,1,1,1,1,1,1,1,1,1,1,1,1,0,0,0,1,0,1,0,1,1,1,1,1,1,1,1,1,0,0,1,1]",1,,,,,,stimuli/grey_butterfly.png,stimuli/white_butterfly.png,1,stimuli/blue_flower.png,stimuli/red_flower.png,stimuli/yellow_flower.png,stimuli/green_flower.png,down,stimuli/objects/barrel01.jpg,1,3,stimuli/grey_butterfly.png,1,7,2020-12-22_15h34.33.053,premce3DEU_ses-02_part-01_label-phase1,2020.1.2,Win32,60,,,,,down,1,0.651,0,23,23,23,1,,,,,,,,
,,,,,1,"[0,1,1,1,1,1,1,1,1,0,1,1,1,1,1,0,1,0,1,1,1,1,1,1,1,1,1,1,1,1,0,1,1,1,1,1,1,0,1,1,1,1,1,1,1,1,1,1,1,1,1,0,0,0,1,0,1,0,1,1,1,1,1,1,1,1,1,0,0,1,1,1]",1,,,,,,stimuli/white_butterfly.png,stimuli/grey_butterfly.png,2,stimuli/green_flower.png,stimuli/red_flower.png,stimuli/yellow_flower.png,stimuli/blue_flower.png,down,stimuli/objects/fingerprint.jpg,1,3,stimuli/grey_butterfly.png,1,7,2020-12-22_15h34.33.053,premce3DEU_ses-02_part-01_label-phase1,2020.1.2,Win32,60,,,,,down,1,0.566,0,24,24,24,1,,,,,,,,
,,,,,0,"[0,1,1,1,1,1,1,1,1,0,1,1,1,1,1,0,1,0,1,1,1,1,1,1,1,1,1,1,1,1,0,1,1,1,1,1,1,0,1,1,1,1,1,1,1,1,1,1,1,1,1,0,0,0,1,0,1,0,1,1,1,1,1,1,1,1,1,0,0,1,1,1,1]",1,,,,,,stimuli/grey_butterfly.png,stimuli/white_butterfly.png,2,stimuli/yellow_flower.png,stimuli/green_flower.png,stimuli/blue_flower.png,stimuli/red_flower.png,down,stimuli/objects/salmon.jpg,0,3,stimuli/white_butterfly.png,1,7,2020-12-22_15h34.33.053,premce3DEU_ses-02_part-01_label-phase1,2020.1.2,Win32,60,,,,,up,0,0.601,0,25,25,25,1,,,,,,,,
,,,,,0,"[0,1,1,1,1,1,1,1,1,0,1,1,1,1,1,0,1,0,1,1,1,1,1,1,1,1,1,1,1,1,0,1,1,1,1,1,1,0,1,1,1,1,1,1,1,1,1,1,1,1,1,0,0,0,1,0,1,0,1,1,1,1,1,1,1,1,1,0,0,1,1,1,1]",1,,,,,,stimuli/white_butterfly.png,stimuli/grey_butterfly.png,2,stimuli/blue_flower.png,stimuli/green_flower.png,stimuli/yellow_flower.png,stimuli/red_flower.png,left,stimuli/objects/cymbal.jpg,0,3,stimuli/grey_butterfly.png,1,7,2020-12-22_15h34.33.053,premce3DEU_ses-02_part-01_label-phase1,2020.1.2,Win32,60,,,,,down,0,0.719,0,26,26,26,1,,,,,,,,
,,,,,1,"[0,1,1,1,1,1,1,1,1,0,1,1,1,1,1,0,1,0,1,1,1,1,1,1,1,1,1,1,1,1,0,1,1,1,1,1,1,0,1,1,1,1,1,1,1,1,1,1,1,1,1,0,0,0,1,0,1,0,1,1,1,1,1,1,1,1,1,0,0,1,1,1,1]",1,,,,,,stimuli/grey_butterfly.png,stimuli/white_butterfly.png,1,stimuli/green_flower.png,stimuli/red_flower.png,stimuli/blue_flower.png,stimuli/yellow_flower.png,right,stimuli/objects/bacon.jpg,1,3,stimuli/grey_butterfly.png,1,7,2020-12-22_15h34.33.053,premce3DEU_ses-02_part-01_label-phase1,2020.1.2,Win32,60,,,,,right,1,1.03,0,27,27,27,1,,,,,,,,
,,,,,1,"[0,1,1,1,1,1,1,1,1,0,1,1,1,1,1,0,1,0,1,1,1,1,1,1,1,1,1,1,1,1,0,1,1,1,1,1,1,0,1,1,1,1,1,1,1,1,1,1,1,1,1,0,0,0,1,0,1,0,1,1,1,1,1,1,1,1,1,0,0,1,1,1,1,1]",1,,,,,,stimuli/white_butterfly.png,stimuli/grey_butterfly.png,1,stimuli/green_flower.png,stimuli/yellow_flower.png,stimuli/red_flower.png,stimuli/blue_flower.png,left,stimuli/objects/witchhat.jpg,1,3,stimuli/white_butterfly.png,1,7,2020-12-22_15h34.33.053,premce3DEU_ses-02_part-01_label-phase1,2020.1.2,Win32,60,,,,,left,1,0.582,0,28,28,28,1,,,,,,,,
,,,,,1,"[0,1,1,1,1,1,1,1,1,0,1,1,1,1,1,0,1,0,1,1,1,1,1,1,1,1,1,1,1,1,0,1,1,1,1,1,1,0,1,1,1,1,1,1,1,1,1,1,1,1,1,0,0,0,1,0,1,0,1,1,1,1,1,1,1,1,1,0,0,1,1,1,1,1,1]",1,,,,,,stimuli/white_butterfly.png,stimuli/grey_butterfly.png,1,stimuli/blue_flower.png,stimuli/yellow_flower.png,stimuli/green_flower.png,stimuli/red_flower.png,down,stimuli/objects/hotdog.jpg,1,3,stimuli/white_butterfly.png,1,7,2020-12-22_15h34.33.053,premce3DEU_ses-02_part-01_label-phase1,2020.1.2,Win32,60,,,,,down,1,0.685,0,29,29,29,1,,,,,,,,
,,,,,1,"[0,1,1,1,1,1,1,1,1,0,1,1,1,1,1,0,1,0,1,1,1,1,1,1,1,1,1,1,1,1,0,1,1,1,1,1,1,0,1,1,1,1,1,1,1,1,1,1,1,1,1,0,0,0,1,0,1,0,1,1,1,1,1,1,1,1,1,0,0,1,1,1,1,1,1,1]",1,,,,,,stimuli/grey_butterfly.png,stimuli/white_butterfly.png,1,stimuli/red_flower.png,stimuli/yellow_flower.png,stimuli/blue_flower.png,stimuli/green_flower.png,up,stimuli/objects/jeans01.jpg,1,3,stimuli/grey_butterfly.png,1,7,2020-12-22_15h34.33.053,premce3DEU_ses-02_part-01_label-phase1,2020.1.2,Win32,60,,,,,up,1,0.644,0,30,30,30,1,,,,,,,,
,,,,,1,"[0,1,1,1,1,1,1,1,1,0,1,1,1,1,1,0,1,0,1,1,1,1,1,1,1,1,1,1,1,1,0,1,1,1,1,1,1,0,1,1,1,1,1,1,1,1,1,1,1,1,1,0,0,0,1,0,1,0,1,1,1,1,1,1,1,1,1,0,0,1,1,1,1,1,1,1,1]",1,,,,,,stimuli/grey_butterfly.png,stimuli/white_butterfly.png,2,stimuli/green_flower.png,stimuli/red_flower.png,stimuli/blue_flower.png,stimuli/yellow_flower.png,left,stimuli/objects/shovel01.jpg,1,3,stimuli/white_butterfly.png,1,7,2020-12-22_15h34.33.053,premce3DEU_ses-02_part-01_label-phase1,2020.1.2,Win32,60,,,,,left,1,0.996,0,31,31,31,1,,,,,,,,
,,,,,1,"[0,1,1,1,1,1,1,1,1,0,1,1,1,1,1,0,1,0,1,1,1,1,1,1,1,1,1,1,1,1,0,1,1,1,1,1,1,0,1,1,1,1,1,1,1,1,1,1,1,1,1,0,0,0,1,0,1,0,1,1,1,1,1,1,1,1,1,0,0,1,1,1,1,1,1,1,1,1]",1,,,,,,stimuli/white_butterfly.png,stimuli/grey_butterfly.png,1,stimuli/yellow_flower.png,stimuli/red_flower.png,stimuli/blue_flower.png,stimuli/green_flower.png,right,stimuli/objects/skihelmet01.jpg,1,3,stimuli/white_butterfly.png,1,7,2020-12-22_15h34.33.053,premce3DEU_ses-02_part-01_label-phase1,2020.1.2,Win32,60,,,,,right,1,1.046,0,32,32,32,1,,,,,,,,
,,,,,1,"[0,1,1,1,1,1,1,1,1,0,1,1,1,1,1,0,1,0,1,1,1,1,1,1,1,1,1,1,1,1,0,1,1,1,1,1,1,0,1,1,1,1,1,1,1,1,1,1,1,1,1,0,0,0,1,0,1,0,1,1,1,1,1,1,1,1,1,0,0,1,1,1,1,1,1,1,1,1,1]",1,,,,,,stimuli/grey_butterfly.png,stimuli/white_butterfly.png,1,stimuli/green_flower.png,stimuli/red_flower.png,stimuli/yellow_flower.png,stimuli/blue_flower.png,down,stimuli/objects/duck01.jpg,1,3,stimuli/grey_butterfly.png,1,7,2020-12-22_15h34.33.053,premce3DEU_ses-02_part-01_label-phase1,2020.1.2,Win32,60,,,,,down,1,0.643,0,33,33,33,1,,,,,,,,
,,,,,1,"[0,1,1,1,1,1,1,1,1,0,1,1,1,1,1,0,1,0,1,1,1,1,1,1,1,1,1,1,1,1,0,1,1,1,1,1,1,0,1,1,1,1,1,1,1,1,1,1,1,1,1,0,0,0,1,0,1,0,1,1,1,1,1,1,1,1,1,0,0,1,1,1,1,1,1,1,1,1,1,1]",1,,,,,,stimuli/grey_butterfly.png,stimuli/white_butterfly.png,2,stimuli/red_flower.png,stimuli/blue_flower.png,stimuli/yellow_flower.png,stimuli/green_flower.png,right,stimuli/objects/vacuumcleaner01.jpg,1,3,stimuli/white_butterfly.png,1,7,2020-12-22_15h34.33.053,premce3DEU_ses-02_part-01_label-phase1,2020.1.2,Win32,60,,,,,right,1,0.48,0,34,34,34,1,,,,,,,,
,,,,,1,"[0,1,1,1,1,1,1,1,1,0,1,1,1,1,1,0,1,0,1,1,1,1,1,1,1,1,1,1,1,1,0,1,1,1,1,1,1,0,1,1,1,1,1,1,1,1,1,1,1,1,1,0,0,0,1,0,1,0,1,1,1,1,1,1,1,1,1,0,0,1,1,1,1,1,1,1,1,1,1,1,1]",1,,,,,,stimuli/grey_butterfly.png,stimuli/white_butterfly.png,1,stimuli/blue_flower.png,stimuli/green_flower.png,stimuli/red_flower.png,stimuli/yellow_flower.png,right,stimuli/objects/chime.jpg,1,3,stimuli/grey_butterfly.png,1,7,2020-12-22_15h34.33.053,premce3DEU_ses-02_part-01_label-phase1,2020.1.2,Win32,60,,,,,right,1,0.613,0,35,35,35,1,,,,,,,,
,,,,,1,"[0,1,1,1,1,1,1,1,1,0,1,1,1,1,1,0,1,0,1,1,1,1,1,1,1,1,1,1,1,1,0,1,1,1,1,1,1,0,1,1,1,1,1,1,1,1,1,1,1,1,1,0,0,0,1,0,1,0,1,1,1,1,1,1,1,1,1,0,0,1,1,1,1,1,1,1,1,1,1,1,1,1]",1,,,,,,stimuli/grey_butterfly.png,stimuli/white_butterfly.png,1,stimuli/blue_flower.png,stimuli/green_flower.png,stimuli/yellow_flower.png,stimuli/red_flower.png,down,stimuli/objects/chipmunk.jpg,1,3,stimuli/grey_butterfly.png,1,7,2020-12-22_15h34.33.053,premce3DEU_ses-02_part-01_label-phase1,2020.1.2,Win32,60,,,,,down,1,0.729,0,36,36,36,1,,,,,,,,
,,,,,1,"[0,1,1,1,1,1,1,1,1,0,1,1,1,1,1,0,1,0,1,1,1,1,1,1,1,1,1,1,1,1,0,1,1,1,1,1,1,0,1,1,1,1,1,1,1,1,1,1,1,1,1,0,0,0,1,0,1,0,1,1,1,1,1,1,1,1,1,0,0,1,1,1,1,1,1,1,1,1,1,1,1,1,1]",1,,,,,,stimuli/grey_butterfly.png,stimuli/white_butterfly.png,1,stimuli/green_flower.png,stimuli/blue_flower.png,stimuli/red_flower.png,stimuli/yellow_flower.png,right,stimuli/objects/butterfly4.jpg,1,3,stimuli/grey_butterfly.png,1,7,2020-12-22_15h34.33.053,premce3DEU_ses-02_part-01_label-phase1,2020.1.2,Win32,60,,,,,right,1,0.669,0,37,37,37,1,,,,,,,,
,,,,,1,"[0,1,1,1,1,1,1,1,1,0,1,1,1,1,1,0,1,0,1,1,1,1,1,1,1,1,1,1,1,1,0,1,1,1,1,1,1,0,1,1,1,1,1,1,1,1,1,1,1,1,1,0,0,0,1,0,1,0,1,1,1,1,1,1,1,1,1,0,0,1,1,1,1,1,1,1,1,1,1,1,1,1,1,1]",1,,,,,,stimuli/grey_butterfly.png,stimuli/white_butterfly.png,2,stimuli/yellow_flower.png,stimuli/blue_flower.png,stimuli/green_flower.png,stimuli/red_flower.png,down,stimuli/objects/jellyfish.jpg,1,3,stimuli/white_butterfly.png,1,7,2020-12-22_15h34.33.053,premce3DEU_ses-02_part-01_label-phase1,2020.1.2,Win32,60,,,,,down,1,0.609,0,38,38,38,1,,,,,,,,
,,,,,0,"[0,1,1,1,1,1,1,1,1,0,1,1,1,1,1,0,1,0,1,1,1,1,1,1,1,1,1,1,1,1,0,1,1,1,1,1,1,0,1,1,1,1,1,1,1,1,1,1,1,1,1,0,0,0,1,0,1,0,1,1,1,1,1,1,1,1,1,0,0,1,1,1,1,1,1,1,1,1,1,1,1,1,1,1,1]",1,,,,,,stimuli/white_butterfly.png,stimuli/grey_butterfly.png,1,stimuli/green_flower.png,stimuli/red_flower.png,stimuli/blue_flower.png,stimuli/yellow_flower.png,up,stimuli/objects/gong.jpg,0,3,stimuli/white_butterfly.png,1,7,2020-12-22_15h34.33.053,premce3DEU_ses-02_part-01_label-phase1,2020.1.2,Win32,60,,,,,left,0,0.661,0,39,39,39,1,,,,,,,,
,,,,,1,"[0,1,1,1,1,1,1,1,1,0,1,1,1,1,1,0,1,0,1,1,1,1,1,1,1,1,1,1,1,1,0,1,1,1,1,1,1,0,1,1,1,1,1,1,1,1,1,1,1,1,1,0,0,0,1,0,1,0,1,1,1,1,1,1,1,1,1,0,0,1,1,1,1,1,1,1,1,1,1,1,1,1,1,1,1]",1,,,,,,stimuli/grey_butterfly.png,stimuli/white_butterfly.png,1,stimuli/green_flower.png,stimuli/yellow_flower.png,stimuli/red_flower.png,stimuli/blue_flower.png,up,stimuli/objects/apron.jpg,1,3,stimuli/grey_butterfly.png,1,7,2020-12-22_15h34.33.053,premce3DEU_ses-02_part-01_label-phase1,2020.1.2,Win32,60,,,,,up,1,0.591,0,40,40,40,1,,,,,,,,
,,,,,1,"[0,1,1,1,1,1,1,1,1,0,1,1,1,1,1,0,1,0,1,1,1,1,1,1,1,1,1,1,1,1,0,1,1,1,1,1,1,0,1,1,1,1,1,1,1,1,1,1,1,1,1,0,0,0,1,0,1,0,1,1,1,1,1,1,1,1,1,0,0,1,1,1,1,1,1,1,1,1,1,1,1,1,1,1,1,1]",1,,,,,,stimuli/grey_butterfly.png,stimuli/white_butterfly.png,1,stimuli/red_flower.png,stimuli/green_flower.png,stimuli/blue_flower.png,stimuli/yellow_flower.png,right,stimuli/objects/scalpel.jpg,1,3,stimuli/grey_butterfly.png,1,7,2020-12-22_15h34.33.053,premce3DEU_ses-02_part-01_label-phase1,2020.1.2,Win32,60,,,,,right,1,0.495,0,41,41,41,1,,,,,,,,
,,,,,,,,,,,,,,,,,,,,,,,,,,7,2020-12-22_15h34.33.053,premce3DEU_ses-02_part-01_label-phase1,2020.1.2,Win32,60,,,,,,,,,,,,,0,1,1,1,1,condition_files/tasklistB4.csv,,
,,,,,0,"[0,1,1,1,1,1,1,1,1,0,1,1,1,1,1,0,1,0,1,1,1,1,1,1,1,1,1,1,1,1,0,1,1,1,1,1,1,0,1,1,1,1,1,1,1,1,1,1,1,1,1,0,0,0,1,0,1,0,1,1,1,1,1,1,1,1,1,0,0,1,1,1,1,1,1,1,1,1,1,1,1,1,1,1,1,1,1]",0,,,,,,stimuli/white_butterfly.png,stimuli/grey_butterfly.png,1,stimuli/yellow_flower.png,stimuli/blue_flower.png,stimuli/green_flower.png,stimuli/red_flower.png,left,stimuli/objects/monarchbutterfly.jpg,1,4,stimuli/white_butterfly.png,0,7,2020-12-22_15h34.33.053,premce3DEU_ses-02_part-01_label-phase1,2020.1.2,Win32,60,,,,,down,0,0.678,0,0,0,0,1,,,,,,,,
,,,,,0,"[0,1,1,1,1,1,1,1,1,0,1,1,1,1,1,0,1,0,1,1,1,1,1,1,1,1,1,1,1,1,0,1,1,1,1,1,1,0,1,1,1,1,1,1,1,1,1,1,1,1,1,0,0,0,1,0,1,0,1,1,1,1,1,1,1,1,1,0,0,1,1,1,1,1,1,1,1,1,1,1,1,1,1,1,1,1,1,0]",0,,,,,,stimuli/grey_butterfly.png,stimuli/white_butterfly.png,1,stimuli/red_flower.png,stimuli/yellow_flower.png,stimuli/green_flower.png,stimuli/blue_flower.png,right,stimuli/objects/baseballglove.jpg,1,4,stimuli/grey_butterfly.png,0,7,2020-12-22_15h34.33.053,premce3DEU_ses-02_part-01_label-phase1,2020.1.2,Win32,60,,,,,up,0,0.51,0,1,1,1,1,,,,,,,,
,,,,,0,"[0,1,1,1,1,1,1,1,1,0,1,1,1,1,1,0,1,0,1,1,1,1,1,1,1,1,1,1,1,1,0,1,1,1,1,1,1,0,1,1,1,1,1,1,1,1,1,1,1,1,1,0,0,0,1,0,1,0,1,1,1,1,1,1,1,1,1,0,0,1,1,1,1,1,1,1,1,1,1,1,1,1,1,1,1,1,1,0,0]",0,,,,,,stimuli/white_butterfly.png,stimuli/grey_butterfly.png,2,stimuli/blue_flower.png,stimuli/red_flower.png,stimuli/yellow_flower.png,stimuli/green_flower.png,left,stimuli/objects/granolabar01.jpg,1,4,stimuli/grey_butterfly.png,0,7,2020-12-22_15h34.33.053,premce3DEU_ses-02_part-01_label-phase1,2020.1.2,Win32,60,,,,,down,0,1.168,0,2,2,2,1,,,,,,,,
,,,,,0,"[0,1,1,1,1,1,1,1,1,0,1,1,1,1,1,0,1,0,1,1,1,1,1,1,1,1,1,1,1,1,0,1,1,1,1,1,1,0,1,1,1,1,1,1,1,1,1,1,1,1,1,0,0,0,1,0,1,0,1,1,1,1,1,1,1,1,1,0,0,1,1,1,1,1,1,1,1,1,1,1,1,1,1,1,1,1,1,0,0,0]",0,,,,,,stimuli/grey_butterfly.png,stimuli/white_butterfly.png,2,stimuli/blue_flower.png,stimuli/red_flower.png,stimuli/yellow_flower.png,stimuli/green_flower.png,down,stimuli/objects/hockeypuck.jpg,1,4,stimuli/white_butterfly.png,0,7,2020-12-22_15h34.33.053,premce3DEU_ses-02_part-01_label-phase1,2020.1.2,Win32,60,,,,,right,0,1.443,0,3,3,3,1,,,,,,,,
,,,,,1,"[0,1,1,1,1,1,1,1,1,0,1,1,1,1,1,0,1,0,1,1,1,1,1,1,1,1,1,1,1,1,0,1,1,1,1,1,1,0,1,1,1,1,1,1,1,1,1,1,1,1,1,0,0,0,1,0,1,0,1,1,1,1,1,1,1,1,1,0,0,1,1,1,1,1,1,1,1,1,1,1,1,1,1,1,1,1,1,0,0,0,0]",1,,,,,,stimuli/white_butterfly.png,stimuli/grey_butterfly.png,1,stimuli/blue_flower.png,stimuli/green_flower.png,stimuli/yellow_flower.png,stimuli/red_flower.png,down,stimuli/objects/bookshelf.jpg,1,4,stimuli/white_butterfly.png,0,7,2020-12-22_15h34.33.053,premce3DEU_ses-02_part-01_label-phase1,2020.1.2,Win32,60,,,,,down,1,0.579,0,4,4,4,1,,,,,,,,
,,,,,1,"[0,1,1,1,1,1,1,1,1,0,1,1,1,1,1,0,1,0,1,1,1,1,1,1,1,1,1,1,1,1,0,1,1,1,1,1,1,0,1,1,1,1,1,1,1,1,1,1,1,1,1,0,0,0,1,0,1,0,1,1,1,1,1,1,1,1,1,0,0,1,1,1,1,1,1,1,1,1,1,1,1,1,1,1,1,1,1,0,0,0,0,1]",1,,,,,,stimuli/white_butterfly.png,stimuli/grey_butterfly.png,1,stimuli/red_flower.png,stimuli/blue_flower.png,stimuli/yellow_flower.png,stimuli/green_flower.png,down,stimuli/objects/gps.jpg,1,4,stimuli/white_butterfly.png,0,7,2020-12-22_15h34.33.053,premce3DEU_ses-02_part-01_label-phase1,2020.1.2,Win32,60,,,,,down,1,1.031,0,5,5,5,1,,,,,,,,
,,,,,1,"[0,1,1,1,1,1,1,1,1,0,1,1,1,1,1,0,1,0,1,1,1,1,1,1,1,1,1,1,1,1,0,1,1,1,1,1,1,0,1,1,1,1,1,1,1,1,1,1,1,1,1,0,0,0,1,0,1,0,1,1,1,1,1,1,1,1,1,0,0,1,1,1,1,1,1,1,1,1,1,1,1,1,1,1,1,1,1,0,0,0,0,1,1]",1,,,,,,stimuli/grey_butterfly.png,stimuli/white_butterfly.png,2,stimuli/green_flower.png,stimuli/red_flower.png,stimuli/blue_flower.png,stimuli/yellow_flower.png,right,stimuli/objects/porcupine.jpg,1,4,stimuli/white_butterfly.png,0,7,2020-12-22_15h34.33.053,premce3DEU_ses-02_part-01_label-phase1,2020.1.2,Win32,60,,,,,right,1,0.7,0,6,6,6,1,,,,,,,,
,,,,,1,"[0,1,1,1,1,1,1,1,1,0,1,1,1,1,1,0,1,0,1,1,1,1,1,1,1,1,1,1,1,1,0,1,1,1,1,1,1,0,1,1,1,1,1,1,1,1,1,1,1,1,1,0,0,0,1,0,1,0,1,1,1,1,1,1,1,1,1,0,0,1,1,1,1,1,1,1,1,1,1,1,1,1,1,1,1,1,1,0,0,0,0,1,1,1]",1,,,,,,stimuli/white_butterfly.png,stimuli/grey_butterfly.png,2,stimuli/blue_flower.png,stimuli/yellow_flower.png,stimuli/green_flower.png,stimuli/red_flower.png,left,stimuli/objects/giraffe.jpg,1,4,stimuli/grey_butterfly.png,0,7,2020-12-22_15h34.33.053,premce3DEU_ses-02_part-01_label-phase1,2020.1.2,Win32,60,,,,,left,1,1.152,0,7,7,7,1,,,,,,,,
,,,,,1,"[0,1,1,1,1,1,1,1,1,0,1,1,1,1,1,0,1,0,1,1,1,1,1,1,1,1,1,1,1,1,0,1,1,1,1,1,1,0,1,1,1,1,1,1,1,1,1,1,1,1,1,0,0,0,1,0,1,0,1,1,1,1,1,1,1,1,1,0,0,1,1,1,1,1,1,1,1,1,1,1,1,1,1,1,1,1,1,0,0,0,0,1,1,1,1]",1,,,,,,stimuli/white_butterfly.png,stimuli/grey_butterfly.png,2,stimuli/red_flower.png,stimuli/green_flower.png,stimuli/blue_flower.png,stimuli/yellow_flower.png,down,stimuli/objects/toyanimal05.jpg,1,4,stimuli/grey_butterfly.png,0,7,2020-12-22_15h34.33.053,premce3DEU_ses-02_part-01_label-phase1,2020.1.2,Win32,60,,,,,down,1,0.702,0,8,8,8,1,,,,,,,,
,,,,,0,"[0,1,1,1,1,1,1,1,1,0,1,1,1,1,1,0,1,0,1,1,1,1,1,1,1,1,1,1,1,1,0,1,1,1,1,1,1,0,1,1,1,1,1,1,1,1,1,1,1,1,1,0,0,0,1,0,1,0,1,1,1,1,1,1,1,1,1,0,0,1,1,1,1,1,1,1,1,1,1,1,1,1,1,1,1,1,1,0,0,0,0,1,1,1,1,1]",1,,,,,,stimuli/grey_butterfly.png,stimuli/white_butterfly.png,2,stimuli/blue_flower.png,stimuli/red_flower.png,stimuli/green_flower.png,stimuli/yellow_flower.png,left,stimuli/objects/table01.jpg,0,4,stimuli/white_butterfly.png,0,7,2020-12-22_15h34.33.053,premce3DEU_ses-02_part-01_label-phase1,2020.1.2,Win32,60,,,,,right,0,0.684,0,9,9,9,1,,,,,,,,
,,,,,0,"[0,1,1,1,1,1,1,1,1,0,1,1,1,1,1,0,1,0,1,1,1,1,1,1,1,1,1,1,1,1,0,1,1,1,1,1,1,0,1,1,1,1,1,1,1,1,1,1,1,1,1,0,0,0,1,0,1,0,1,1,1,1,1,1,1,1,1,0,0,1,1,1,1,1,1,1,1,1,1,1,1,1,1,1,1,1,1,0,0,0,0,1,1,1,1,1]",1,,,,,,stimuli/grey_butterfly.png,stimuli/white_butterfly.png,1,stimuli/yellow_flower.png,stimuli/green_flower.png,stimuli/red_flower.png,stimuli/blue_flower.png,left,stimuli/objects/jellybean.jpg,0,4,stimuli/grey_butterfly.png,0,7,2020-12-22_15h34.33.053,premce3DEU_ses-02_part-01_label-phase1,2020.1.2,Win32,60,,,,,right,0,0.856,0,10,10,10,1,,,,,,,,
,,,,,1,"[0,1,1,1,1,1,1,1,1,0,1,1,1,1,1,0,1,0,1,1,1,1,1,1,1,1,1,1,1,1,0,1,1,1,1,1,1,0,1,1,1,1,1,1,1,1,1,1,1,1,1,0,0,0,1,0,1,0,1,1,1,1,1,1,1,1,1,0,0,1,1,1,1,1,1,1,1,1,1,1,1,1,1,1,1,1,1,0,0,0,0,1,1,1,1,1]",1,,,,,,stimuli/white_butterfly.png,stimuli/grey_butterfly.png,1,stimuli/green_flower.png,stimuli/yellow_flower.png,stimuli/red_flower.png,stimuli/blue_flower.png,up,stimuli/objects/hulahoop.jpg,1,4,stimuli/white_butterfly.png,0,7,2020-12-22_15h34.33.053,premce3DEU_ses-02_part-01_label-phase1,2020.1.2,Win32,60,,,,,up,1,1.752,0,11,11,11,1,,,,,,,,
,,,,,0,"[0,1,1,1,1,1,1,1,1,0,1,1,1,1,1,0,1,0,1,1,1,1,1,1,1,1,1,1,1,1,0,1,1,1,1,1,1,0,1,1,1,1,1,1,1,1,1,1,1,1,1,0,0,0,1,0,1,0,1,1,1,1,1,1,1,1,1,0,0,1,1,1,1,1,1,1,1,1,1,1,1,1,1,1,1,1,1,0,0,0,0,1,1,1,1,1,1]",0,,,,,,stimuli/grey_butterfly.png,stimuli/white_butterfly.png,1,stimuli/blue_flower.png,stimuli/red_flower.png,stimuli/yellow_flower.png,stimuli/green_flower.png,left,stimuli/objects/treadmill.jpg,1,4,stimuli/grey_butterfly.png,0,7,2020-12-22_15h34.33.053,premce3DEU_ses-02_part-01_label-phase1,2020.1.2,Win32,60,,,,,down,0,0.871,0,12,12,12,1,,,,,,,,
,,,,,1,"[0,1,1,1,1,1,1,1,1,0,1,1,1,1,1,0,1,0,1,1,1,1,1,1,1,1,1,1,1,1,0,1,1,1,1,1,1,0,1,1,1,1,1,1,1,1,1,1,1,1,1,0,0,0,1,0,1,0,1,1,1,1,1,1,1,1,1,0,0,1,1,1,1,1,1,1,1,1,1,1,1,1,1,1,1,1,1,0,0,0,0,1,1,1,1,1,1,0]",1,,,,,,stimuli/grey_butterfly.png,stimuli/white_butterfly.png,2,stimuli/red_flower.png,stimuli/green_flower.png,stimuli/blue_flower.png,stimuli/yellow_flower.png,right,stimuli/objects/volleyball.jpg,1,4,stimuli/white_butterfly.png,0,7,2020-12-22_15h34.33.053,premce3DEU_ses-02_part-01_label-phase1,2020.1.2,Win32,60,,,,,right,1,0.583,0,13,13,13,1,,,,,,,,
,,,,,1,"[0,1,1,1,1,1,1,1,1,0,1,1,1,1,1,0,1,0,1,1,1,1,1,1,1,1,1,1,1,1,0,1,1,1,1,1,1,0,1,1,1,1,1,1,1,1,1,1,1,1,1,0,0,0,1,0,1,0,1,1,1,1,1,1,1,1,1,0,0,1,1,1,1,1,1,1,1,1,1,1,1,1,1,1,1,1,1,0,0,0,0,1,1,1,1,1,1,0,1]",1,,,,,,stimuli/white_butterfly.png,stimuli/grey_butterfly.png,2,stimuli/blue_flower.png,stimuli/green_flower.png,stimuli/red_flower.png,stimuli/yellow_flower.png,left,stimuli/objects/whiteout.jpg,1,4,stimuli/grey_butterfly.png,0,7,2020-12-22_15h34.33.053,premce3DEU_ses-02_part-01_label-phase1,2020.1.2,Win32,60,,,,,left,1,0.504,0,14,14,14,1,,,,,,,,
,,,,,1,"[0,1,1,1,1,1,1,1,1,0,1,1,1,1,1,0,1,0,1,1,1,1,1,1,1,1,1,1,1,1,0,1,1,1,1,1,1,0,1,1,1,1,1,1,1,1,1,1,1,1,1,0,0,0,1,0,1,0,1,1,1,1,1,1,1,1,1,0,0,1,1,1,1,1,1,1,1,1,1,1,1,1,1,1,1,1,1,0,0,0,0,1,1,1,1,1,1,0,1,1]",1,,,,,,stimuli/white_butterfly.png,stimuli/grey_butterfly.png,2,stimuli/yellow_flower.png,stimuli/blue_flower.png,stimuli/red_flower.png,stimuli/green_flower.png,up,stimuli/objects/butterfly2.jpg,1,4,stimuli/grey_butterfly.png,0,7,2020-12-22_15h34.33.053,premce3DEU_ses-02_part-01_label-phase1,2020.1.2,Win32,60,,,,,up,1,0.896,0,15,15,15,1,,,,,,,,
,,,,,0,"[0,1,1,1,1,1,1,1,1,0,1,1,1,1,1,0,1,0,1,1,1,1,1,1,1,1,1,1,1,1,0,1,1,1,1,1,1,0,1,1,1,1,1,1,1,1,1,1,1,1,1,0,0,0,1,0,1,0,1,1,1,1,1,1,1,1,1,0,0,1,1,1,1,1,1,1,1,1,1,1,1,1,1,1,1,1,1,0,0,0,0,1,1,1,1,1,1,0,1,1,1]",1,,,,,,stimuli/grey_butterfly.png,stimuli/white_butterfly.png,1,stimuli/blue_flower.png,stimuli/yellow_flower.png,stimuli/red_flower.png,stimuli/green_flower.png,down,stimuli/objects/eyepatch.jpg,0,4,stimuli/grey_butterfly.png,0,7,2020-12-22_15h34.33.053,premce3DEU_ses-02_part-01_label-phase1,2020.1.2,Win32,60,,,,,left,0,0.508,0,16,16,16,1,,,,,,,,
,,,,,0,"[0,1,1,1,1,1,1,1,1,0,1,1,1,1,1,0,1,0,1,1,1,1,1,1,1,1,1,1,1,1,0,1,1,1,1,1,1,0,1,1,1,1,1,1,1,1,1,1,1,1,1,0,0,0,1,0,1,0,1,1,1,1,1,1,1,1,1,0,0,1,1,1,1,1,1,1,1,1,1,1,1,1,1,1,1,1,1,0,0,0,0,1,1,1,1,1,1,0,1,1,1]",1,,,,,,stimuli/grey_butterfly.png,stimuli/white_butterfly.png,2,stimuli/yellow_flower.png,stimuli/blue_flower.png,stimuli/green_flower.png,stimuli/red_flower.png,right,stimuli/objects/sausage.jpg,0,4,stimuli/white_butterfly.png,0,7,2020-12-22_15h34.33.053,premce3DEU_ses-02_part-01_label-phase1,2020.1.2,Win32,60,,,,,left,0,0.511,0,17,17,17,1,,,,,,,,
,,,,,1,"[0,1,1,1,1,1,1,1,1,0,1,1,1,1,1,0,1,0,1,1,1,1,1,1,1,1,1,1,1,1,0,1,1,1,1,1,1,0,1,1,1,1,1,1,1,1,1,1,1,1,1,0,0,0,1,0,1,0,1,1,1,1,1,1,1,1,1,0,0,1,1,1,1,1,1,1,1,1,1,1,1,1,1,1,1,1,1,0,0,0,0,1,1,1,1,1,1,0,1,1,1]",1,,,,,,stimuli/white_butterfly.png,stimuli/grey_butterfly.png,2,stimuli/yellow_flower.png,stimuli/green_flower.png,stimuli/red_flower.png,stimuli/blue_flower.png,right,stimuli/objects/sandcastle.jpg,1,4,stimuli/grey_butterfly.png,0,7,2020-12-22_15h34.33.053,premce3DEU_ses-02_part-01_label-phase1,2020.1.2,Win32,60,,,,,right,1,0.82,0,18,18,18,1,,,,,,,,
,,,,,1,"[0,1,1,1,1,1,1,1,1,0,1,1,1,1,1,0,1,0,1,1,1,1,1,1,1,1,1,1,1,1,0,1,1,1,1,1,1,0,1,1,1,1,1,1,1,1,1,1,1,1,1,0,0,0,1,0,1,0,1,1,1,1,1,1,1,1,1,0,0,1,1,1,1,1,1,1,1,1,1,1,1,1,1,1,1,1,1,0,0,0,0,1,1,1,1,1,1,0,1,1,1,1]",1,,,,,,stimuli/white_butterfly.png,stimuli/grey_butterfly.png,1,stimuli/green_flower.png,stimuli/red_flower.png,stimuli/blue_flower.png,stimuli/yellow_flower.png,right,stimuli/objects/ironingboard01.jpg,1,4,stimuli/white_butterfly.png,0,7,2020-12-22_15h34.33.053,premce3DEU_ses-02_part-01_label-phase1,2020.1.2,Win32,60,,,,,right,1,0.468,0,19,19,19,1,,,,,,,,
,,,,,0,"[0,1,1,1,1,1,1,1,1,0,1,1,1,1,1,0,1,0,1,1,1,1,1,1,1,1,1,1,1,1,0,1,1,1,1,1,1,0,1,1,1,1,1,1,1,1,1,1,1,1,1,0,0,0,1,0,1,0,1,1,1,1,1,1,1,1,1,0,0,1,1,1,1,1,1,1,1,1,1,1,1,1,1,1,1,1,1,0,0,0,0,1,1,1,1,1,1,0,1,1,1,1,1]",1,,,,,,stimuli/white_butterfly.png,stimuli/grey_butterfly.png,2,stimuli/blue_flower.png,stimuli/green_flower.png,stimuli/yellow_flower.png,stimuli/red_flower.png,up,stimuli/objects/showerhead01.jpg,0,4,stimuli/grey_butterfly.png,0,7,2020-12-22_15h34.33.053,premce3DEU_ses-02_part-01_label-phase1,2020.1.2,Win32,60,,,,,left,0,0.423,0,20,20,20,1,,,,,,,,
,,,,,1,"[0,1,1,1,1,1,1,1,1,0,1,1,1,1,1,0,1,0,1,1,1,1,1,1,1,1,1,1,1,1,0,1,1,1,1,1,1,0,1,1,1,1,1,1,1,1,1,1,1,1,1,0,0,0,1,0,1,0,1,1,1,1,1,1,1,1,1,0,0,1,1,1,1,1,1,1,1,1,1,1,1,1,1,1,1,1,1,0,0,0,0,1,1,1,1,1,1,0,1,1,1,1,1]",1,,,,,,stimuli/white_butterfly.png,stimuli/grey_butterfly.png,2,stimuli/yellow_flower.png,stimuli/red_flower.png,stimuli/green_flower.png,stimuli/blue_flower.png,right,stimuli/objects/cookingpot.jpg,1,4,stimuli/grey_butterfly.png,1,7,2020-12-22_15h34.33.053,premce3DEU_ses-02_part-01_label-phase1,2020.1.2,Win32,60,,,,,right,1,0.496,0,21,21,21,1,,,,,,,,
,,,,,1,"[0,1,1,1,1,1,1,1,1,0,1,1,1,1,1,0,1,0,1,1,1,1,1,1,1,1,1,1,1,1,0,1,1,1,1,1,1,0,1,1,1,1,1,1,1,1,1,1,1,1,1,0,0,0,1,0,1,0,1,1,1,1,1,1,1,1,1,0,0,1,1,1,1,1,1,1,1,1,1,1,1,1,1,1,1,1,1,0,0,0,0,1,1,1,1,1,1,0,1,1,1,1,1,1]",1,,,,,,stimuli/grey_butterfly.png,stimuli/white_butterfly.png,1,stimuli/red_flower.png,stimuli/blue_flower.png,stimuli/green_flower.png,stimuli/yellow_flower.png,up,stimuli/objects/snowglobe.jpg,1,4,stimuli/grey_butterfly.png,1,7,2020-12-22_15h34.33.053,premce3DEU_ses-02_part-01_label-phase1,2020.1.2,Win32,60,,,,,up,1,0.369,0,22,22,22,1,,,,,,,,
,,,,,1,"[0,1,1,1,1,1,1,1,1,0,1,1,1,1,1,0,1,0,1,1,1,1,1,1,1,1,1,1,1,1,0,1,1,1,1,1,1,0,1,1,1,1,1,1,1,1,1,1,1,1,1,0,0,0,1,0,1,0,1,1,1,1,1,1,1,1,1,0,0,1,1,1,1,1,1,1,1,1,1,1,1,1,1,1,1,1,1,0,0,0,0,1,1,1,1,1,1,0,1,1,1,1,1,1,1]",1,,,,,,stimuli/white_butterfly.png,stimuli/grey_butterfly.png,1,stimuli/red_flower.png,stimuli/green_flower.png,stimuli/blue_flower.png,stimuli/yellow_flower.png,right,stimuli/objects/jaguar.jpg,1,4,stimuli/white_butterfly.png,1,7,2020-12-22_15h34.33.053,premce3DEU_ses-02_part-01_label-phase1,2020.1.2,Win32,60,,,,,right,1,0.43,0,23,23,23,1,,,,,,,,
,,,,,1,"[0,1,1,1,1,1,1,1,1,0,1,1,1,1,1,0,1,0,1,1,1,1,1,1,1,1,1,1,1,1,0,1,1,1,1,1,1,0,1,1,1,1,1,1,1,1,1,1,1,1,1,0,0,0,1,0,1,0,1,1,1,1,1,1,1,1,1,0,0,1,1,1,1,1,1,1,1,1,1,1,1,1,1,1,1,1,1,0,0,0,0,1,1,1,1,1,1,0,1,1,1,1,1,1,1,1]",1,,,,,,stimuli/white_butterfly.png,stimuli/grey_butterfly.png,2,stimuli/blue_flower.png,stimuli/red_flower.png,stimuli/green_flower.png,stimuli/yellow_flower.png,left,stimuli/objects/escalator.jpg,1,4,stimuli/grey_butterfly.png,1,7,2020-12-22_15h34.33.053,premce3DEU_ses-02_part-01_label-phase1,2020.1.2,Win32,60,,,,,left,1,0.39,0,24,24,24,1,,,,,,,,
,,,,,1,"[0,1,1,1,1,1,1,1,1,0,1,1,1,1,1,0,1,0,1,1,1,1,1,1,1,1,1,1,1,1,0,1,1,1,1,1,1,0,1,1,1,1,1,1,1,1,1,1,1,1,1,0,0,0,1,0,1,0,1,1,1,1,1,1,1,1,1,0,0,1,1,1,1,1,1,1,1,1,1,1,1,1,1,1,1,1,1,0,0,0,0,1,1,1,1,1,1,0,1,1,1,1,1,1,1,1,1]",1,,,,,,stimuli/grey_butterfly.png,stimuli/white_butterfly.png,1,stimuli/yellow_flower.png,stimuli/red_flower.png,stimuli/green_flower.png,stimuli/blue_flower.png,right,stimuli/objects/surfboard.jpg,1,4,stimuli/grey_butterfly.png,1,7,2020-12-22_15h34.33.053,premce3DEU_ses-02_part-01_label-phase1,2020.1.2,Win32,60,,,,,right,1,0.395,0,25,25,25,1,,,,,,,,
,,,,,1,"[0,1,1,1,1,1,1,1,1,0,1,1,1,1,1,0,1,0,1,1,1,1,1,1,1,1,1,1,1,1,0,1,1,1,1,1,1,0,1,1,1,1,1,1,1,1,1,1,1,1,1,0,0,0,1,0,1,0,1,1,1,1,1,1,1,1,1,0,0,1,1,1,1,1,1,1,1,1,1,1,1,1,1,1,1,1,1,0,0,0,0,1,1,1,1,1,1,0,1,1,1,1,1,1,1,1,1,1]",1,,,,,,stimuli/grey_butterfly.png,stimuli/white_butterfly.png,1,stimuli/red_flower.png,stimuli/green_flower.png,stimuli/blue_flower.png,stimuli/yellow_flower.png,down,stimuli/objects/winniethepooh.jpg,1,4,stimuli/grey_butterfly.png,1,7,2020-12-22_15h34.33.053,premce3DEU_ses-02_part-01_label-phase1,2020.1.2,Win32,60,,,,,down,1,0.907,0,26,26,26,1,,,,,,,,
,,,,,1,"[0,1,1,1,1,1,1,1,1,0,1,1,1,1,1,0,1,0,1,1,1,1,1,1,1,1,1,1,1,1,0,1,1,1,1,1,1,0,1,1,1,1,1,1,1,1,1,1,1,1,1,0,0,0,1,0,1,0,1,1,1,1,1,1,1,1,1,0,0,1,1,1,1,1,1,1,1,1,1,1,1,1,1,1,1,1,1,0,0,0,0,1,1,1,1,1,1,0,1,1,1,1,1,1,1,1,1,1,1]",1,,,,,,stimuli/white_butterfly.png,stimuli/grey_butterfly.png,1,stimuli/red_flower.png,stimuli/yellow_flower.png,stimuli/blue_flower.png,stimuli/green_flower.png,up,stimuli/objects/lantern03.jpg,1,4,stimuli/white_butterfly.png,1,7,2020-12-22_15h34.33.053,premce3DEU_ses-02_part-01_label-phase1,2020.1.2,Win32,60,,,,,up,1,0.491,0,27,27,27,1,,,,,,,,
,,,,,1,"[0,1,1,1,1,1,1,1,1,0,1,1,1,1,1,0,1,0,1,1,1,1,1,1,1,1,1,1,1,1,0,1,1,1,1,1,1,0,1,1,1,1,1,1,1,1,1,1,1,1,1,0,0,0,1,0,1,0,1,1,1,1,1,1,1,1,1,0,0,1,1,1,1,1,1,1,1,1,1,1,1,1,1,1,1,1,1,0,0,0,0,1,1,1,1,1,1,0,1,1,1,1,1,1,1,1,1,1,1,1]",1,,,,,,stimuli/grey_butterfly.png,stimuli/white_butterfly.png,2,stimuli/green_flower.png,stimuli/yellow_flower.png,stimuli/red_flower.png,stimuli/blue_flower.png,up,stimuli/objects/polarbear.jpg,1,4,stimuli/white_butterfly.png,1,7,2020-12-22_15h34.33.053,premce3DEU_ses-02_part-01_label-phase1,2020.1.2,Win32,60,,,,,up,1,0.411,0,28,28,28,1,,,,,,,,
,,,,,1,"[0,1,1,1,1,1,1,1,1,0,1,1,1,1,1,0,1,0,1,1,1,1,1,1,1,1,1,1,1,1,0,1,1,1,1,1,1,0,1,1,1,1,1,1,1,1,1,1,1,1,1,0,0,0,1,0,1,0,1,1,1,1,1,1,1,1,1,0,0,1,1,1,1,1,1,1,1,1,1,1,1,1,1,1,1,1,1,0,0,0,0,1,1,1,1,1,1,0,1,1,1,1,1,1,1,1,1,1,1,1,1]",1,,,,,,stimuli/white_butterfly.png,stimuli/grey_butterfly.png,1,stimuli/yellow_flower.png,stimuli/green_flower.png,stimuli/red_flower.png,stimuli/blue_flower.png,left,stimuli/objects/microwave.jpg,1,4,stimuli/white_butterfly.png,1,7,2020-12-22_15h34.33.053,premce3DEU_ses-02_part-01_label-phase1,2020.1.2,Win32,60,,,,,left,1,0.47,0,29,29,29,1,,,,,,,,
,,,,,1,"[0,1,1,1,1,1,1,1,1,0,1,1,1,1,1,0,1,0,1,1,1,1,1,1,1,1,1,1,1,1,0,1,1,1,1,1,1,0,1,1,1,1,1,1,1,1,1,1,1,1,1,0,0,0,1,0,1,0,1,1,1,1,1,1,1,1,1,0,0,1,1,1,1,1,1,1,1,1,1,1,1,1,1,1,1,1,1,0,0,0,0,1,1,1,1,1,1,0,1,1,1,1,1,1,1,1,1,1,1,1,1,1]",1,,,,,,stimuli/white_butterfly.png,stimuli/grey_butterfly.png,1,stimuli/blue_flower.png,stimuli/green_flower.png,stimuli/red_flower.png,stimuli/yellow_flower.png,right,stimuli/objects/dalmatian.jpg,1,4,stimuli/white_butterfly.png,1,7,2020-12-22_15h34.33.053,premce3DEU_ses-02_part-01_label-phase1,2020.1.2,Win32,60,,,,,right,1,0.452,0,30,30,30,1,,,,,,,,
,,,,,0,"[0,1,1,1,1,1,1,1,1,0,1,1,1,1,1,0,1,0,1,1,1,1,1,1,1,1,1,1,1,1,0,1,1,1,1,1,1,0,1,1,1,1,1,1,1,1,1,1,1,1,1,0,0,0,1,0,1,0,1,1,1,1,1,1,1,1,1,0,0,1,1,1,1,1,1,1,1,1,1,1,1,1,1,1,1,1,1,0,0,0,0,1,1,1,1,1,1,0,1,1,1,1,1,1,1,1,1,1,1,1,1,1,1]",1,,,,,,stimuli/white_butterfly.png,stimuli/grey_butterfly.png,1,stimuli/green_flower.png,stimuli/red_flower.png,stimuli/yellow_flower.png,stimuli/blue_flower.png,left,stimuli/objects/fishingrod.jpg,0,4,stimuli/white_butterfly.png,1,7,2020-12-22_15h34.33.053,premce3DEU_ses-02_part-01_label-phase1,2020.1.2,Win32,60,,,,,down,0,0.612,0,31,31,31,1,,,,,,,,
,,,,,1,"[0,1,1,1,1,1,1,1,1,0,1,1,1,1,1,0,1,0,1,1,1,1,1,1,1,1,1,1,1,1,0,1,1,1,1,1,1,0,1,1,1,1,1,1,1,1,1,1,1,1,1,0,0,0,1,0,1,0,1,1,1,1,1,1,1,1,1,0,0,1,1,1,1,1,1,1,1,1,1,1,1,1,1,1,1,1,1,0,0,0,0,1,1,1,1,1,1,0,1,1,1,1,1,1,1,1,1,1,1,1,1,1,1]",1,,,,,,stimuli/grey_butterfly.png,stimuli/white_butterfly.png,2,stimuli/blue_flower.png,stimuli/green_flower.png,stimuli/yellow_flower.png,stimuli/red_flower.png,down,stimuli/objects/trafficlight.jpg,1,4,stimuli/white_butterfly.png,1,7,2020-12-22_15h34.33.053,premce3DEU_ses-02_part-01_label-phase1,2020.1.2,Win32,60,,,,,down,1,0.541,0,32,32,32,1,,,,,,,,
,,,,,1,"[0,1,1,1,1,1,1,1,1,0,1,1,1,1,1,0,1,0,1,1,1,1,1,1,1,1,1,1,1,1,0,1,1,1,1,1,1,0,1,1,1,1,1,1,1,1,1,1,1,1,1,0,0,0,1,0,1,0,1,1,1,1,1,1,1,1,1,0,0,1,1,1,1,1,1,1,1,1,1,1,1,1,1,1,1,1,1,0,0,0,0,1,1,1,1,1,1,0,1,1,1,1,1,1,1,1,1,1,1,1,1,1,1,1]",1,,,,,,stimuli/grey_butterfly.png,stimuli/white_butterfly.png,2,stimuli/yellow_flower.png,stimuli/green_flower.png,stimuli/blue_flower.png,stimuli/red_flower.png,left,stimuli/objects/birdfeeder.jpg,1,4,stimuli/white_butterfly.png,1,7,2020-12-22_15h34.33.053,premce3DEU_ses-02_part-01_label-phase1,2020.1.2,Win32,60,,,,,left,1,0.519,0,33,33,33,1,,,,,,,,
,,,,,1,"[0,1,1,1,1,1,1,1,1,0,1,1,1,1,1,0,1,0,1,1,1,1,1,1,1,1,1,1,1,1,0,1,1,1,1,1,1,0,1,1,1,1,1,1,1,1,1,1,1,1,1,0,0,0,1,0,1,0,1,1,1,1,1,1,1,1,1,0,0,1,1,1,1,1,1,1,1,1,1,1,1,1,1,1,1,1,1,0,0,0,0,1,1,1,1,1,1,0,1,1,1,1,1,1,1,1,1,1,1,1,1,1,1,1,1]",1,,,,,,stimuli/white_butterfly.png,stimuli/grey_butterfly.png,2,stimuli/green_flower.png,stimuli/blue_flower.png,stimuli/yellow_flower.png,stimuli/red_flower.png,up,stimuli/objects/golfball.jpg,1,4,stimuli/grey_butterfly.png,1,7,2020-12-22_15h34.33.053,premce3DEU_ses-02_part-01_label-phase1,2020.1.2,Win32,60,,,,,up,1,0.536,0,34,34,34,1,,,,,,,,
,,,,,1,"[0,1,1,1,1,1,1,1,1,0,1,1,1,1,1,0,1,0,1,1,1,1,1,1,1,1,1,1,1,1,0,1,1,1,1,1,1,0,1,1,1,1,1,1,1,1,1,1,1,1,1,0,0,0,1,0,1,0,1,1,1,1,1,1,1,1,1,0,0,1,1,1,1,1,1,1,1,1,1,1,1,1,1,1,1,1,1,0,0,0,0,1,1,1,1,1,1,0,1,1,1,1,1,1,1,1,1,1,1,1,1,1,1,1,1,1]",1,,,,,,stimuli/grey_butterfly.png,stimuli/white_butterfly.png,2,stimuli/yellow_flower.png,stimuli/red_flower.png,stimuli/green_flower.png,stimuli/blue_flower.png,left,stimuli/objects/butterfly2.jpg,1,4,stimuli/white_butterfly.png,1,7,2020-12-22_15h34.33.053,premce3DEU_ses-02_part-01_label-phase1,2020.1.2,Win32,60,,,,,left,1,0.651,0,35,35,35,1,,,,,,,,
,,,,,1,"[0,1,1,1,1,1,1,1,1,0,1,1,1,1,1,0,1,0,1,1,1,1,1,1,1,1,1,1,1,1,0,1,1,1,1,1,1,0,1,1,1,1,1,1,1,1,1,1,1,1,1,0,0,0,1,0,1,0,1,1,1,1,1,1,1,1,1,0,0,1,1,1,1,1,1,1,1,1,1,1,1,1,1,1,1,1,1,0,0,0,0,1,1,1,1,1,1,0,1,1,1,1,1,1,1,1,1,1,1,1,1,1,1,1,1,1,1]",1,,,,,,stimuli/grey_butterfly.png,stimuli/white_butterfly.png,2,stimuli/yellow_flower.png,stimuli/blue_flower.png,stimuli/red_flower.png,stimuli/green_flower.png,left,stimuli/objects/handbrush02.jpg,1,4,stimuli/white_butterfly.png,1,7,2020-12-22_15h34.33.053,premce3DEU_ses-02_part-01_label-phase1,2020.1.2,Win32,60,,,,,left,1,0.458,0,36,36,36,1,,,,,,,,
,,,,,1,"[0,1,1,1,1,1,1,1,1,0,1,1,1,1,1,0,1,0,1,1,1,1,1,1,1,1,1,1,1,1,0,1,1,1,1,1,1,0,1,1,1,1,1,1,1,1,1,1,1,1,1,0,0,0,1,0,1,0,1,1,1,1,1,1,1,1,1,0,0,1,1,1,1,1,1,1,1,1,1,1,1,1,1,1,1,1,1,0,0,0,0,1,1,1,1,1,1,0,1,1,1,1,1,1,1,1,1,1,1,1,1,1,1,1,1,1,1,1]",1,,,,,,stimuli/white_butterfly.png,stimuli/grey_butterfly.png,2,stimuli/red_flower.png,stimuli/yellow_flower.png,stimuli/green_flower.png,stimuli/blue_flower.png,right,stimuli/objects/dogsled.jpg,1,4,stimuli/grey_butterfly.png,1,7,2020-12-22_15h34.33.053,premce3DEU_ses-02_part-01_label-phase1,2020.1.2,Win32,60,,,,,right,1,0.435,0,37,37,37,1,,,,,,,,
,,,,,1,"[0,1,1,1,1,1,1,1,1,0,1,1,1,1,1,0,1,0,1,1,1,1,1,1,1,1,1,1,1,1,0,1,1,1,1,1,1,0,1,1,1,1,1,1,1,1,1,1,1,1,1,0,0,0,1,0,1,0,1,1,1,1,1,1,1,1,1,0,0,1,1,1,1,1,1,1,1,1,1,1,1,1,1,1,1,1,1,0,0,0,0,1,1,1,1,1,1,0,1,1,1,1,1,1,1,1,1,1,1,1,1,1,1,1,1,1,1,1,1]",1,,,,,,stimuli/grey_butterfly.png,stimuli/white_butterfly.png,2,stimuli/blue_flower.png,stimuli/green_flower.png,stimuli/red_flower.png,stimuli/yellow_flower.png,right,stimuli/objects/seaturtle.jpg,1,4,stimuli/white_butterfly.png,1,7,2020-12-22_15h34.33.053,premce3DEU_ses-02_part-01_label-phase1,2020.1.2,Win32,60,,,,,right,1,0.842,0,38,38,38,1,,,,,,,,
,,,,,1,"[0,1,1,1,1,1,1,1,1,0,1,1,1,1,1,0,1,0,1,1,1,1,1,1,1,1,1,1,1,1,0,1,1,1,1,1,1,0,1,1,1,1,1,1,1,1,1,1,1,1,1,0,0,0,1,0,1,0,1,1,1,1,1,1,1,1,1,0,0,1,1,1,1,1,1,1,1,1,1,1,1,1,1,1,1,1,1,0,0,0,0,1,1,1,1,1,1,0,1,1,1,1,1,1,1,1,1,1,1,1,1,1,1,1,1,1,1,1,1,1]",1,,,,,,stimuli/white_butterfly.png,stimuli/grey_butterfly.png,2,stimuli/green_flower.png,stimuli/yellow_flower.png,stimuli/red_flower.png,stimuli/blue_flower.png,right,stimuli/objects/canoepaddle02.jpg,1,4,stimuli/grey_butterfly.png,1,7,2020-12-22_15h34.33.053,premce3DEU_ses-02_part-01_label-phase1,2020.1.2,Win32,60,,,,,right,1,0.401,0,39,39,39,1,,,,,,,,
,,,,,1,"[0,1,1,1,1,1,1,1,1,0,1,1,1,1,1,0,1,0,1,1,1,1,1,1,1,1,1,1,1,1,0,1,1,1,1,1,1,0,1,1,1,1,1,1,1,1,1,1,1,1,1,0,0,0,1,0,1,0,1,1,1,1,1,1,1,1,1,0,0,1,1,1,1,1,1,1,1,1,1,1,1,1,1,1,1,1,1,0,0,0,0,1,1,1,1,1,1,0,1,1,1,1,1,1,1,1,1,1,1,1,1,1,1,1,1,1,1,1,1,1,1]",1,,,,,,stimuli/grey_butterfly.png,stimuli/white_butterfly.png,1,stimuli/blue_flower.png,stimuli/yellow_flower.png,stimuli/green_flower.png,stimuli/red_flower.png,left,stimuli/objects/trophy01.jpg,1,4,stimuli/grey_butterfly.png,1,7,2020-12-22_15h34.33.053,premce3DEU_ses-02_part-01_label-phase1,2020.1.2,Win32,60,,,,,left,1,0.556,0,40,40,40,1,,,,,,,,
,,,,,1,"[0,1,1,1,1,1,1,1,1,0,1,1,1,1,1,0,1,0,1,1,1,1,1,1,1,1,1,1,1,1,0,1,1,1,1,1,1,0,1,1,1,1,1,1,1,1,1,1,1,1,1,0,0,0,1,0,1,0,1,1,1,1,1,1,1,1,1,0,0,1,1,1,1,1,1,1,1,1,1,1,1,1,1,1,1,1,1,0,0,0,0,1,1,1,1,1,1,0,1,1,1,1,1,1,1,1,1,1,1,1,1,1,1,1,1,1,1,1,1,1,1,1]",1,,,,,,stimuli/white_butterfly.png,stimuli/grey_butterfly.png,2,stimuli/red_flower.png,stimuli/yellow_flower.png,stimuli/blue_flower.png,stimuli/green_flower.png,down,stimuli/objects/donut.jpg,1,4,stimuli/grey_butterfly.png,1,7,2020-12-22_15h34.33.053,premce3DEU_ses-02_part-01_label-phase1,2020.1.2,Win32,60,,,,,down,1,0.63,0,41,41,41,1,,,,,,,,
,,,,,,,,,,,,,,,,,,,,,,,,,,7,2020-12-22_15h34.33.053,premce3DEU_ses-02_part-01_label-phase1,2020.1.2,Win32,60,,,,,,,,,,,,,0,2,2,2,1,condition_files/tasklistC4.csv,,
,,,,,0,"[0,1,1,1,1,1,1,1,1,0,1,1,1,1,1,0,1,0,1,1,1,1,1,1,1,1,1,1,1,1,0,1,1,1,1,1,1,0,1,1,1,1,1,1,1,1,1,1,1,1,1,0,0,0,1,0,1,0,1,1,1,1,1,1,1,1,1,0,0,1,1,1,1,1,1,1,1,1,1,1,1,1,1,1,1,1,1,0,0,0,0,1,1,1,1,1,1,0,1,1,1,1,1,1,1,1,1,1,1,1,1,1,1,1,1,1,1,1,1,1,1,1,1]",1,,,,,,stimuli/grey_butterfly.png,stimuli/white_butterfly.png,1,stimuli/red_flower.png,stimuli/green_flower.png,stimuli/yellow_flower.png,stimuli/blue_flower.png,down,stimuli/objects/snowman.jpg,0,5,stimuli/grey_butterfly.png,0,7,2020-12-22_15h34.33.053,premce3DEU_ses-02_part-01_label-phase1,2020.1.2,Win32,60,,,,,right,0,0.453,0,0,0,0,1,,,,,,,,
,,,,,0,"[0,1,1,1,1,1,1,1,1,0,1,1,1,1,1,0,1,0,1,1,1,1,1,1,1,1,1,1,1,1,0,1,1,1,1,1,1,0,1,1,1,1,1,1,1,1,1,1,1,1,1,0,0,0,1,0,1,0,1,1,1,1,1,1,1,1,1,0,0,1,1,1,1,1,1,1,1,1,1,1,1,1,1,1,1,1,1,0,0,0,0,1,1,1,1,1,1,0,1,1,1,1,1,1,1,1,1,1,1,1,1,1,1,1,1,1,1,1,1,1,1,1,1]",0,,,,,,stimuli/white_butterfly.png,stimuli/grey_butterfly.png,1,stimuli/yellow_flower.png,stimuli/red_flower.png,stimuli/blue_flower.png,stimuli/green_flower.png,up,stimuli/objects/artichoke01b.jpg,1,5,stimuli/white_butterfly.png,0,7,2020-12-22_15h34.33.053,premce3DEU_ses-02_part-01_label-phase1,2020.1.2,Win32,60,,,,,left,0,1.324,0,1,1,1,1,,,,,,,,
,,,,,0,"[0,1,1,1,1,1,1,1,1,0,1,1,1,1,1,0,1,0,1,1,1,1,1,1,1,1,1,1,1,1,0,1,1,1,1,1,1,0,1,1,1,1,1,1,1,1,1,1,1,1,1,0,0,0,1,0,1,0,1,1,1,1,1,1,1,1,1,0,0,1,1,1,1,1,1,1,1,1,1,1,1,1,1,1,1,1,1,0,0,0,0,1,1,1,1,1,1,0,1,1,1,1,1,1,1,1,1,1,1,1,1,1,1,1,1,1,1,1,1,1,1,1,1,0]",0,,,,,,stimuli/grey_butterfly.png,stimuli/white_butterfly.png,2,stimuli/green_flower.png,stimuli/yellow_flower.png,stimuli/red_flower.png,stimuli/blue_flower.png,down,stimuli/objects/lintroller.jpg,1,5,stimuli/white_butterfly.png,0,7,2020-12-22_15h34.33.053,premce3DEU_ses-02_part-01_label-phase1,2020.1.2,Win32,60,,,,,up,0,0.497,0,2,2,2,1,,,,,,,,
,,,,,1,"[0,1,1,1,1,1,1,1,1,0,1,1,1,1,1,0,1,0,1,1,1,1,1,1,1,1,1,1,1,1,0,1,1,1,1,1,1,0,1,1,1,1,1,1,1,1,1,1,1,1,1,0,0,0,1,0,1,0,1,1,1,1,1,1,1,1,1,0,0,1,1,1,1,1,1,1,1,1,1,1,1,1,1,1,1,1,1,0,0,0,0,1,1,1,1,1,1,0,1,1,1,1,1,1,1,1,1,1,1,1,1,1,1,1,1,1,1,1,1,1,1,1,1,0,0]",1,,,,,,stimuli/grey_butterfly.png,stimuli/white_butterfly.png,2,stimuli/green_flower.png,stimuli/blue_flower.png,stimuli/red_flower.png,stimuli/yellow_flower.png,down,stimuli/objects/fridge.jpg,1,5,stimuli/white_butterfly.png,0,7,2020-12-22_15h34.33.053,premce3DEU_ses-02_part-01_label-phase1,2020.1.2,Win32,60,,,,,down,1,0.657,0,3,3,3,1,,,,,,,,
,,,,,1,"[0,1,1,1,1,1,1,1,1,0,1,1,1,1,1,0,1,0,1,1,1,1,1,1,1,1,1,1,1,1,0,1,1,1,1,1,1,0,1,1,1,1,1,1,1,1,1,1,1,1,1,0,0,0,1,0,1,0,1,1,1,1,1,1,1,1,1,0,0,1,1,1,1,1,1,1,1,1,1,1,1,1,1,1,1,1,1,0,0,0,0,1,1,1,1,1,1,0,1,1,1,1,1,1,1,1,1,1,1,1,1,1,1,1,1,1,1,1,1,1,1,1,1,0,0,1]",1,,,,,,stimuli/white_butterfly.png,stimuli/grey_butterfly.png,1,stimuli/blue_flower.png,stimuli/green_flower.png,stimuli/yellow_flower.png,stimuli/red_flower.png,right,stimuli/objects/shower.jpg,1,5,stimuli/white_butterfly.png,0,7,2020-12-22_15h34.33.053,premce3DEU_ses-02_part-01_label-phase1,2020.1.2,Win32,60,,,,,right,1,0.503,0,4,4,4,1,,,,,,,,
,,,,,1,"[0,1,1,1,1,1,1,1,1,0,1,1,1,1,1,0,1,0,1,1,1,1,1,1,1,1,1,1,1,1,0,1,1,1,1,1,1,0,1,1,1,1,1,1,1,1,1,1,1,1,1,0,0,0,1,0,1,0,1,1,1,1,1,1,1,1,1,0,0,1,1,1,1,1,1,1,1,1,1,1,1,1,1,1,1,1,1,0,0,0,0,1,1,1,1,1,1,0,1,1,1,1,1,1,1,1,1,1,1,1,1,1,1,1,1,1,1,1,1,1,1,1,1,0,0,1,1]",1,,,,,,stimuli/white_butterfly.png,stimuli/grey_butterfly.png,1,stimuli/green_flower.png,stimuli/blue_flower.png,stimuli/red_flower.png,stimuli/yellow_flower.png,down,stimuli/objects/zebra.jpg,1,5,stimuli/white_butterfly.png,0,7,2020-12-22_15h34.33.053,premce3DEU_ses-02_part-01_label-phase1,2020.1.2,Win32,60,,,,,down,1,0.711,0,5,5,5,1,,,,,,,,
,,,,,1,"[0,1,1,1,1,1,1,1,1,0,1,1,1,1,1,0,1,0,1,1,1,1,1,1,1,1,1,1,1,1,0,1,1,1,1,1,1,0,1,1,1,1,1,1,1,1,1,1,1,1,1,0,0,0,1,0,1,0,1,1,1,1,1,1,1,1,1,0,0,1,1,1,1,1,1,1,1,1,1,1,1,1,1,1,1,1,1,0,0,0,0,1,1,1,1,1,1,0,1,1,1,1,1,1,1,1,1,1,1,1,1,1,1,1,1,1,1,1,1,1,1,1,1,0,0,1,1,1]",1,,,,,,stimuli/white_butterfly.png,stimuli/grey_butterfly.png,1,stimuli/green_flower.png,stimuli/yellow_flower.png,stimuli/blue_flower.png,stimuli/red_flower.png,right,stimuli/objects/jokercard.jpg,1,5,stimuli/white_butterfly.png,0,7,2020-12-22_15h34.33.053,premce3DEU_ses-02_part-01_label-phase1,2020.1.2,Win32,60,,,,,right,1,0.442,0,6,6,6,1,,,,,,,,
,,,,,0,"[0,1,1,1,1,1,1,1,1,0,1,1,1,1,1,0,1,0,1,1,1,1,1,1,1,1,1,1,1,1,0,1,1,1,1,1,1,0,1,1,1,1,1,1,1,1,1,1,1,1,1,0,0,0,1,0,1,0,1,1,1,1,1,1,1,1,1,0,0,1,1,1,1,1,1,1,1,1,1,1,1,1,1,1,1,1,1,0,0,0,0,1,1,1,1,1,1,0,1,1,1,1,1,1,1,1,1,1,1,1,1,1,1,1,1,1,1,1,1,1,1,1,1,0,0,1,1,1,1]",1,,,,,,stimuli/white_butterfly.png,stimuli/grey_butterfly.png,2,stimuli/green_flower.png,stimuli/blue_flower.png,stimuli/red_flower.png,stimuli/yellow_flower.png,down,stimuli/objects/coffeemachine.jpg,0,5,stimuli/grey_butterfly.png,0,7,2020-12-22_15h34.33.053,premce3DEU_ses-02_part-01_label-phase1,2020.1.2,Win32,60,,,,,right,0,2.016,0,7,7,7,1,,,,,,,,
,,,,,1,"[0,1,1,1,1,1,1,1,1,0,1,1,1,1,1,0,1,0,1,1,1,1,1,1,1,1,1,1,1,1,0,1,1,1,1,1,1,0,1,1,1,1,1,1,1,1,1,1,1,1,1,0,0,0,1,0,1,0,1,1,1,1,1,1,1,1,1,0,0,1,1,1,1,1,1,1,1,1,1,1,1,1,1,1,1,1,1,0,0,0,0,1,1,1,1,1,1,0,1,1,1,1,1,1,1,1,1,1,1,1,1,1,1,1,1,1,1,1,1,1,1,1,1,0,0,1,1,1,1]",1,,,,,,stimuli/grey_butterfly.png,stimuli/white_butterfly.png,2,stimuli/blue_flower.png,stimuli/green_flower.png,stimuli/red_flower.png,stimuli/yellow_flower.png,down,stimuli/objects/recyclingbin.jpg,1,5,stimuli/white_butterfly.png,0,7,2020-12-22_15h34.33.053,premce3DEU_ses-02_part-01_label-phase1,2020.1.2,Win32,60,,,,,down,1,0.722,0,8,8,8,1,,,,,,,,
,,,,,0,"[0,1,1,1,1,1,1,1,1,0,1,1,1,1,1,0,1,0,1,1,1,1,1,1,1,1,1,1,1,1,0,1,1,1,1,1,1,0,1,1,1,1,1,1,1,1,1,1,1,1,1,0,0,0,1,0,1,0,1,1,1,1,1,1,1,1,1,0,0,1,1,1,1,1,1,1,1,1,1,1,1,1,1,1,1,1,1,0,0,0,0,1,1,1,1,1,1,0,1,1,1,1,1,1,1,1,1,1,1,1,1,1,1,1,1,1,1,1,1,1,1,1,1,0,0,1,1,1,1,1]",0,,,,,,stimuli/white_butterfly.png,stimuli/grey_butterfly.png,2,stimuli/green_flower.png,stimuli/yellow_flower.png,stimuli/blue_flower.png,stimuli/red_flower.png,left,stimuli/objects/aquarium.jpg,1,5,stimuli/grey_butterfly.png,0,7,2020-12-22_15h34.33.053,premce3DEU_ses-02_part-01_label-phase1,2020.1.2,Win32,60,,,,,up,0,0.512,0,9,9,9,1,,,,,,,,
,,,,,1,"[0,1,1,1,1,1,1,1,1,0,1,1,1,1,1,0,1,0,1,1,1,1,1,1,1,1,1,1,1,1,0,1,1,1,1,1,1,0,1,1,1,1,1,1,1,1,1,1,1,1,1,0,0,0,1,0,1,0,1,1,1,1,1,1,1,1,1,0,0,1,1,1,1,1,1,1,1,1,1,1,1,1,1,1,1,1,1,0,0,0,0,1,1,1,1,1,1,0,1,1,1,1,1,1,1,1,1,1,1,1,1,1,1,1,1,1,1,1,1,1,1,1,1,0,0,1,1,1,1,1,0]",1,,,,,,stimuli/white_butterfly.png,stimuli/grey_butterfly.png,2,stimuli/green_flower.png,stimuli/red_flower.png,stimuli/blue_flower.png,stimuli/yellow_flower.png,left,stimuli/objects/skiboot01a.jpg,1,5,stimuli/grey_butterfly.png,0,7,2020-12-22_15h34.33.053,premce3DEU_ses-02_part-01_label-phase1,2020.1.2,Win32,60,,,,,left,1,0.479,0,10,10,10,1,,,,,,,,
,,,,,1,"[0,1,1,1,1,1,1,1,1,0,1,1,1,1,1,0,1,0,1,1,1,1,1,1,1,1,1,1,1,1,0,1,1,1,1,1,1,0,1,1,1,1,1,1,1,1,1,1,1,1,1,0,0,0,1,0,1,0,1,1,1,1,1,1,1,1,1,0,0,1,1,1,1,1,1,1,1,1,1,1,1,1,1,1,1,1,1,0,0,0,0,1,1,1,1,1,1,0,1,1,1,1,1,1,1,1,1,1,1,1,1,1,1,1,1,1,1,1,1,1,1,1,1,0,0,1,1,1,1,1,0,1]",1,,,,,,stimuli/white_butterfly.png,stimuli/grey_butterfly.png,2,stimuli/blue_flower.png,stimuli/green_flower.png,stimuli/red_flower.png,stimuli/yellow_flower.png,up,stimuli/objects/cuttlefish.jpg,1,5,stimuli/grey_butterfly.png,0,7,2020-12-22_15h34.33.053,premce3DEU_ses-02_part-01_label-phase1,2020.1.2,Win32,60,,,,,up,1,1.066,0,11,11,11,1,,,,,,,,
,,,,,1,"[0,1,1,1,1,1,1,1,1,0,1,1,1,1,1,0,1,0,1,1,1,1,1,1,1,1,1,1,1,1,0,1,1,1,1,1,1,0,1,1,1,1,1,1,1,1,1,1,1,1,1,0,0,0,1,0,1,0,1,1,1,1,1,1,1,1,1,0,0,1,1,1,1,1,1,1,1,1,1,1,1,1,1,1,1,1,1,0,0,0,0,1,1,1,1,1,1,0,1,1,1,1,1,1,1,1,1,1,1,1,1,1,1,1,1,1,1,1,1,1,1,1,1,0,0,1,1,1,1,1,0,1,1]",1,,,,,,stimuli/white_butterfly.png,stimuli/grey_butterfly.png,2,stimuli/red_flower.png,stimuli/yellow_flower.png,stimuli/green_flower.png,stimuli/blue_flower.png,down,stimuli/objects/stool01.jpg,1,5,stimuli/grey_butterfly.png,0,7,2020-12-22_15h34.33.053,premce3DEU_ses-02_part-01_label-phase1,2020.1.2,Win32,60,,,,,down,1,0.682,0,12,12,12,1,,,,,,,,
,,,,,1,"[0,1,1,1,1,1,1,1,1,0,1,1,1,1,1,0,1,0,1,1,1,1,1,1,1,1,1,1,1,1,0,1,1,1,1,1,1,0,1,1,1,1,1,1,1,1,1,1,1,1,1,0,0,0,1,0,1,0,1,1,1,1,1,1,1,1,1,0,0,1,1,1,1,1,1,1,1,1,1,1,1,1,1,1,1,1,1,0,0,0,0,1,1,1,1,1,1,0,1,1,1,1,1,1,1,1,1,1,1,1,1,1,1,1,1,1,1,1,1,1,1,1,1,0,0,1,1,1,1,1,0,1,1,1]",1,,,,,,stimuli/grey_butterfly.png,stimuli/white_butterfly.png,2,stimuli/yellow_flower.png,stimuli/green_flower.png,stimuli/red_flower.png,stimuli/blue_flower.png,down,stimuli/objects/pumpkin.jpg,1,5,stimuli/white_butterfly.png,0,7,2020-12-22_15h34.33.053,premce3DEU_ses-02_part-01_label-phase1,2020.1.2,Win32,60,,,,,down,1,0.624,0,13,13,13,1,,,,,,,,
,,,,,1,"[0,1,1,1,1,1,1,1,1,0,1,1,1,1,1,0,1,0,1,1,1,1,1,1,1,1,1,1,1,1,0,1,1,1,1,1,1,0,1,1,1,1,1,1,1,1,1,1,1,1,1,0,0,0,1,0,1,0,1,1,1,1,1,1,1,1,1,0,0,1,1,1,1,1,1,1,1,1,1,1,1,1,1,1,1,1,1,0,0,0,0,1,1,1,1,1,1,0,1,1,1,1,1,1,1,1,1,1,1,1,1,1,1,1,1,1,1,1,1,1,1,1,1,0,0,1,1,1,1,1,0,1,1,1,1]",1,,,,,,stimuli/grey_butterfly.png,stimuli/white_butterfly.png,1,stimuli/blue_flower.png,stimuli/red_flower.png,stimuli/yellow_flower.png,stimuli/green_flower.png,right,stimuli/objects/mirror02.jpg,1,5,stimuli/grey_butterfly.png,0,7,2020-12-22_15h34.33.053,premce3DEU_ses-02_part-01_label-phase1,2020.1.2,Win32,60,,,,,right,1,0.9,0,14,14,14,1,,,,,,,,
,,,,,1,"[0,1,1,1,1,1,1,1,1,0,1,1,1,1,1,0,1,0,1,1,1,1,1,1,1,1,1,1,1,1,0,1,1,1,1,1,1,0,1,1,1,1,1,1,1,1,1,1,1,1,1,0,0,0,1,0,1,0,1,1,1,1,1,1,1,1,1,0,0,1,1,1,1,1,1,1,1,1,1,1,1,1,1,1,1,1,1,0,0,0,0,1,1,1,1,1,1,0,1,1,1,1,1,1,1,1,1,1,1,1,1,1,1,1,1,1,1,1,1,1,1,1,1,0,0,1,1,1,1,1,0,1,1,1,1,1]",1,,,,,,stimuli/grey_butterfly.png,stimuli/white_butterfly.png,1,stimuli/green_flower.png,stimuli/red_flower.png,stimuli/yellow_flower.png,stimuli/blue_flower.png,left,stimuli/objects/crab01.jpg,1,5,stimuli/grey_butterfly.png,0,7,2020-12-22_15h34.33.053,premce3DEU_ses-02_part-01_label-phase1,2020.1.2,Win32,60,,,,,left,1,0.428,0,15,15,15,1,,,,,,,,
,,,,,1,"[0,1,1,1,1,1,1,1,1,0,1,1,1,1,1,0,1,0,1,1,1,1,1,1,1,1,1,1,1,1,0,1,1,1,1,1,1,0,1,1,1,1,1,1,1,1,1,1,1,1,1,0,0,0,1,0,1,0,1,1,1,1,1,1,1,1,1,0,0,1,1,1,1,1,1,1,1,1,1,1,1,1,1,1,1,1,1,0,0,0,0,1,1,1,1,1,1,0,1,1,1,1,1,1,1,1,1,1,1,1,1,1,1,1,1,1,1,1,1,1,1,1,1,0,0,1,1,1,1,1,0,1,1,1,1,1,1]",1,,,,,,stimuli/grey_butterfly.png,stimuli/white_butterfly.png,1,stimuli/blue_flower.png,stimuli/green_flower.png,stimuli/red_flower.png,stimuli/yellow_flower.png,up,stimuli/objects/butterfly3.jpg,1,5,stimuli/grey_butterfly.png,0,7,2020-12-22_15h34.33.053,premce3DEU_ses-02_part-01_label-phase1,2020.1.2,Win32,60,,,,,up,1,0.632,0,16,16,16,1,,,,,,,,
,,,,,1,"[0,1,1,1,1,1,1,1,1,0,1,1,1,1,1,0,1,0,1,1,1,1,1,1,1,1,1,1,1,1,0,1,1,1,1,1,1,0,1,1,1,1,1,1,1,1,1,1,1,1,1,0,0,0,1,0,1,0,1,1,1,1,1,1,1,1,1,0,0,1,1,1,1,1,1,1,1,1,1,1,1,1,1,1,1,1,1,0,0,0,0,1,1,1,1,1,1,0,1,1,1,1,1,1,1,1,1,1,1,1,1,1,1,1,1,1,1,1,1,1,1,1,1,0,0,1,1,1,1,1,0,1,1,1,1,1,1,1]",1,,,,,,stimuli/white_butterfly.png,stimuli/grey_butterfly.png,1,stimuli/green_flower.png,stimuli/red_flower.png,stimuli/yellow_flower.png,stimuli/blue_flower.png,up,stimuli/objects/fishskeleton.jpg,1,5,stimuli/white_butterfly.png,0,7,2020-12-22_15h34.33.053,premce3DEU_ses-02_part-01_label-phase1,2020.1.2,Win32,60,,,,,up,1,1.075,0,17,17,17,1,,,,,,,,
,,,,,1,"[0,1,1,1,1,1,1,1,1,0,1,1,1,1,1,0,1,0,1,1,1,1,1,1,1,1,1,1,1,1,0,1,1,1,1,1,1,0,1,1,1,1,1,1,1,1,1,1,1,1,1,0,0,0,1,0,1,0,1,1,1,1,1,1,1,1,1,0,0,1,1,1,1,1,1,1,1,1,1,1,1,1,1,1,1,1,1,0,0,0,0,1,1,1,1,1,1,0,1,1,1,1,1,1,1,1,1,1,1,1,1,1,1,1,1,1,1,1,1,1,1,1,1,0,0,1,1,1,1,1,0,1,1,1,1,1,1,1,1]",1,,,,,,stimuli/white_butterfly.png,stimuli/grey_butterfly.png,2,stimuli/yellow_flower.png,stimuli/blue_flower.png,stimuli/red_flower.png,stimuli/green_flower.png,right,stimuli/objects/jackrabbit.jpg,1,5,stimuli/grey_butterfly.png,0,7,2020-12-22_15h34.33.053,premce3DEU_ses-02_part-01_label-phase1,2020.1.2,Win32,60,,,,,right,1,0.561,0,18,18,18,1,,,,,,,,
,,,,,1,"[0,1,1,1,1,1,1,1,1,0,1,1,1,1,1,0,1,0,1,1,1,1,1,1,1,1,1,1,1,1,0,1,1,1,1,1,1,0,1,1,1,1,1,1,1,1,1,1,1,1,1,0,0,0,1,0,1,0,1,1,1,1,1,1,1,1,1,0,0,1,1,1,1,1,1,1,1,1,1,1,1,1,1,1,1,1,1,0,0,0,0,1,1,1,1,1,1,0,1,1,1,1,1,1,1,1,1,1,1,1,1,1,1,1,1,1,1,1,1,1,1,1,1,0,0,1,1,1,1,1,0,1,1,1,1,1,1,1,1,1]",1,,,,,,stimuli/white_butterfly.png,stimuli/grey_butterfly.png,1,stimuli/blue_flower.png,stimuli/red_flower.png,stimuli/green_flower.png,stimuli/yellow_flower.png,up,stimuli/objects/dartboard.jpg,1,5,stimuli/white_butterfly.png,0,7,2020-12-22_15h34.33.053,premce3DEU_ses-02_part-01_label-phase1,2020.1.2,Win32,60,,,,,up,1,0.562,0,19,19,19,1,,,,,,,,
,,,,,0,"[0,1,1,1,1,1,1,1,1,0,1,1,1,1,1,0,1,0,1,1,1,1,1,1,1,1,1,1,1,1,0,1,1,1,1,1,1,0,1,1,1,1,1,1,1,1,1,1,1,1,1,0,0,0,1,0,1,0,1,1,1,1,1,1,1,1,1,0,0,1,1,1,1,1,1,1,1,1,1,1,1,1,1,1,1,1,1,0,0,0,0,1,1,1,1,1,1,0,1,1,1,1,1,1,1,1,1,1,1,1,1,1,1,1,1,1,1,1,1,1,1,1,1,0,0,1,1,1,1,1,0,1,1,1,1,1,1,1,1,1,1]",0,,,,,,stimuli/grey_butterfly.png,stimuli/white_butterfly.png,1,stimuli/red_flower.png,stimuli/green_flower.png,stimuli/blue_flower.png,stimuli/yellow_flower.png,up,stimuli/objects/brownsugar.jpg,1,5,stimuli/grey_butterfly.png,0,7,2020-12-22_15h34.33.053,premce3DEU_ses-02_part-01_label-phase1,2020.1.2,Win32,60,,,,,left,0,0.555,0,20,20,20,1,,,,,,,,
,,,,,1,"[0,1,1,1,1,1,1,1,1,0,1,1,1,1,1,0,1,0,1,1,1,1,1,1,1,1,1,1,1,1,0,1,1,1,1,1,1,0,1,1,1,1,1,1,1,1,1,1,1,1,1,0,0,0,1,0,1,0,1,1,1,1,1,1,1,1,1,0,0,1,1,1,1,1,1,1,1,1,1,1,1,1,1,1,1,1,1,0,0,0,0,1,1,1,1,1,1,0,1,1,1,1,1,1,1,1,1,1,1,1,1,1,1,1,1,1,1,1,1,1,1,1,1,0,0,1,1,1,1,1,0,1,1,1,1,1,1,1,1,1,1,0]",1,,,,,,stimuli/grey_butterfly.png,stimuli/white_butterfly.png,2,stimuli/blue_flower.png,stimuli/green_flower.png,stimuli/yellow_flower.png,stimuli/red_flower.png,right,stimuli/objects/cremebrulee.jpg,1,5,stimuli/white_butterfly.png,1,7,2020-12-22_15h34.33.053,premce3DEU_ses-02_part-01_label-phase1,2020.1.2,Win32,60,,,,,right,1,0.795,0,21,21,21,1,,,,,,,,
,,,,,1,"[0,1,1,1,1,1,1,1,1,0,1,1,1,1,1,0,1,0,1,1,1,1,1,1,1,1,1,1,1,1,0,1,1,1,1,1,1,0,1,1,1,1,1,1,1,1,1,1,1,1,1,0,0,0,1,0,1,0,1,1,1,1,1,1,1,1,1,0,0,1,1,1,1,1,1,1,1,1,1,1,1,1,1,1,1,1,1,0,0,0,0,1,1,1,1,1,1,0,1,1,1,1,1,1,1,1,1,1,1,1,1,1,1,1,1,1,1,1,1,1,1,1,1,0,0,1,1,1,1,1,0,1,1,1,1,1,1,1,1,1,1,0,1]",1,,,,,,stimuli/grey_butterfly.png,stimuli/white_butterfly.png,1,stimuli/red_flower.png,stimuli/blue_flower.png,stimuli/green_flower.png,stimuli/yellow_flower.png,down,stimuli/objects/doghouse.jpg,1,5,stimuli/grey_butterfly.png,1,7,2020-12-22_15h34.33.053,premce3DEU_ses-02_part-01_label-phase1,2020.1.2,Win32,60,,,,,down,1,0.872,0,22,22,22,1,,,,,,,,
,,,,,1,"[0,1,1,1,1,1,1,1,1,0,1,1,1,1,1,0,1,0,1,1,1,1,1,1,1,1,1,1,1,1,0,1,1,1,1,1,1,0,1,1,1,1,1,1,1,1,1,1,1,1,1,0,0,0,1,0,1,0,1,1,1,1,1,1,1,1,1,0,0,1,1,1,1,1,1,1,1,1,1,1,1,1,1,1,1,1,1,0,0,0,0,1,1,1,1,1,1,0,1,1,1,1,1,1,1,1,1,1,1,1,1,1,1,1,1,1,1,1,1,1,1,1,1,0,0,1,1,1,1,1,0,1,1,1,1,1,1,1,1,1,1,0,1,1]",1,,,,,,stimuli/grey_butterfly.png,stimuli/white_butterfly.png,2,stimuli/yellow_flower.png,stimuli/red_flower.png,stimuli/blue_flower.png,stimuli/green_flower.png,up,stimuli/objects/filingcabinet.jpg,1,5,stimuli/white_butterfly.png,1,7,2020-12-22_15h34.33.053,premce3DEU_ses-02_part-01_label-phase1,2020.1.2,Win32,60,,,,,up,1,0.439,0,23,23,23,1,,,,,,,,
,,,,,0,"[0,1,1,1,1,1,1,1,1,0,1,1,1,1,1,0,1,0,1,1,1,1,1,1,1,1,1,1,1,1,0,1,1,1,1,1,1,0,1,1,1,1,1,1,1,1,1,1,1,1,1,0,0,0,1,0,1,0,1,1,1,1,1,1,1,1,1,0,0,1,1,1,1,1,1,1,1,1,1,1,1,1,1,1,1,1,1,0,0,0,0,1,1,1,1,1,1,0,1,1,1,1,1,1,1,1,1,1,1,1,1,1,1,1,1,1,1,1,1,1,1,1,1,0,0,1,1,1,1,1,0,1,1,1,1,1,1,1,1,1,1,0,1,1,1]",1,,,,,,stimuli/white_butterfly.png,stimuli/grey_butterfly.png,2,stimuli/blue_flower.png,stimuli/green_flower.png,stimuli/yellow_flower.png,stimuli/red_flower.png,left,stimuli/objects/skateboard.jpg,0,5,stimuli/grey_butterfly.png,1,7,2020-12-22_15h34.33.053,premce3DEU_ses-02_part-01_label-phase1,2020.1.2,Win32,60,,,,,up,0,0.489,0,24,24,24,1,,,,,,,,
,,,,,1,"[0,1,1,1,1,1,1,1,1,0,1,1,1,1,1,0,1,0,1,1,1,1,1,1,1,1,1,1,1,1,0,1,1,1,1,1,1,0,1,1,1,1,1,1,1,1,1,1,1,1,1,0,0,0,1,0,1,0,1,1,1,1,1,1,1,1,1,0,0,1,1,1,1,1,1,1,1,1,1,1,1,1,1,1,1,1,1,0,0,0,0,1,1,1,1,1,1,0,1,1,1,1,1,1,1,1,1,1,1,1,1,1,1,1,1,1,1,1,1,1,1,1,1,0,0,1,1,1,1,1,0,1,1,1,1,1,1,1,1,1,1,0,1,1,1]",1,,,,,,stimuli/white_butterfly.png,stimuli/grey_butterfly.png,2,stimuli/red_flower.png,stimuli/green_flower.png,stimuli/yellow_flower.png,stimuli/blue_flower.png,up,stimuli/objects/hockeystick.jpg,1,5,stimuli/grey_butterfly.png,1,7,2020-12-22_15h34.33.053,premce3DEU_ses-02_part-01_label-phase1,2020.1.2,Win32,60,,,,,up,1,0.402,0,25,25,25,1,,,,,,,,
,,,,,1,"[0,1,1,1,1,1,1,1,1,0,1,1,1,1,1,0,1,0,1,1,1,1,1,1,1,1,1,1,1,1,0,1,1,1,1,1,1,0,1,1,1,1,1,1,1,1,1,1,1,1,1,0,0,0,1,0,1,0,1,1,1,1,1,1,1,1,1,0,0,1,1,1,1,1,1,1,1,1,1,1,1,1,1,1,1,1,1,0,0,0,0,1,1,1,1,1,1,0,1,1,1,1,1,1,1,1,1,1,1,1,1,1,1,1,1,1,1,1,1,1,1,1,1,0,0,1,1,1,1,1,0,1,1,1,1,1,1,1,1,1,1,0,1,1,1,1]",1,,,,,,stimuli/grey_butterfly.png,stimuli/white_butterfly.png,1,stimuli/blue_flower.png,stimuli/red_flower.png,stimuli/green_flower.png,stimuli/yellow_flower.png,down,stimuli/objects/bolt01a.jpg,1,5,stimuli/grey_butterfly.png,1,7,2020-12-22_15h34.33.053,premce3DEU_ses-02_part-01_label-phase1,2020.1.2,Win32,60,,,,,down,1,0.735,0,26,26,26,1,,,,,,,,
,,,,,1,"[0,1,1,1,1,1,1,1,1,0,1,1,1,1,1,0,1,0,1,1,1,1,1,1,1,1,1,1,1,1,0,1,1,1,1,1,1,0,1,1,1,1,1,1,1,1,1,1,1,1,1,0,0,0,1,0,1,0,1,1,1,1,1,1,1,1,1,0,0,1,1,1,1,1,1,1,1,1,1,1,1,1,1,1,1,1,1,0,0,0,0,1,1,1,1,1,1,0,1,1,1,1,1,1,1,1,1,1,1,1,1,1,1,1,1,1,1,1,1,1,1,1,1,0,0,1,1,1,1,1,0,1,1,1,1,1,1,1,1,1,1,0,1,1,1,1,1]",1,,,,,,stimuli/white_butterfly.png,stimuli/grey_butterfly.png,2,stimuli/blue_flower.png,stimuli/red_flower.png,stimuli/green_flower.png,stimuli/yellow_flower.png,down,stimuli/objects/ipad02.jpg,1,5,stimuli/grey_butterfly.png,1,7,2020-12-22_15h34.33.053,premce3DEU_ses-02_part-01_label-phase1,2020.1.2,Win32,60,,,,,down,1,0.619,0,27,27,27,1,,,,,,,,
,,,,,1,"[0,1,1,1,1,1,1,1,1,0,1,1,1,1,1,0,1,0,1,1,1,1,1,1,1,1,1,1,1,1,0,1,1,1,1,1,1,0,1,1,1,1,1,1,1,1,1,1,1,1,1,0,0,0,1,0,1,0,1,1,1,1,1,1,1,1,1,0,0,1,1,1,1,1,1,1,1,1,1,1,1,1,1,1,1,1,1,0,0,0,0,1,1,1,1,1,1,0,1,1,1,1,1,1,1,1,1,1,1,1,1,1,1,1,1,1,1,1,1,1,1,1,1,0,0,1,1,1,1,1,0,1,1,1,1,1,1,1,1,1,1,0,1,1,1,1,1,1]",1,,,,,,stimuli/grey_butterfly.png,stimuli/white_butterfly.png,1,stimuli/green_flower.png,stimuli/blue_flower.png,stimuli/red_flower.png,stimuli/yellow_flower.png,left,stimuli/objects/cannon.jpg,1,5,stimuli/grey_butterfly.png,1,7,2020-12-22_15h34.33.053,premce3DEU_ses-02_part-01_label-phase1,2020.1.2,Win32,60,,,,,left,1,0.716,0,28,28,28,1,,,,,,,,
,,,,,1,"[0,1,1,1,1,1,1,1,1,0,1,1,1,1,1,0,1,0,1,1,1,1,1,1,1,1,1,1,1,1,0,1,1,1,1,1,1,0,1,1,1,1,1,1,1,1,1,1,1,1,1,0,0,0,1,0,1,0,1,1,1,1,1,1,1,1,1,0,0,1,1,1,1,1,1,1,1,1,1,1,1,1,1,1,1,1,1,0,0,0,0,1,1,1,1,1,1,0,1,1,1,1,1,1,1,1,1,1,1,1,1,1,1,1,1,1,1,1,1,1,1,1,1,0,0,1,1,1,1,1,0,1,1,1,1,1,1,1,1,1,1,0,1,1,1,1,1,1,1]",1,,,,,,stimuli/white_butterfly.png,stimuli/grey_butterfly.png,1,stimuli/red_flower.png,stimuli/yellow_flower.png,stimuli/blue_flower.png,stimuli/green_flower.png,left,stimuli/objects/bathtub.jpg,1,5,stimuli/white_butterfly.png,1,7,2020-12-22_15h34.33.053,premce3DEU_ses-02_part-01_label-phase1,2020.1.2,Win32,60,,,,,left,1,0.686,0,29,29,29,1,,,,,,,,
,,,,,0,"[0,1,1,1,1,1,1,1,1,0,1,1,1,1,1,0,1,0,1,1,1,1,1,1,1,1,1,1,1,1,0,1,1,1,1,1,1,0,1,1,1,1,1,1,1,1,1,1,1,1,1,0,0,0,1,0,1,0,1,1,1,1,1,1,1,1,1,0,0,1,1,1,1,1,1,1,1,1,1,1,1,1,1,1,1,1,1,0,0,0,0,1,1,1,1,1,1,0,1,1,1,1,1,1,1,1,1,1,1,1,1,1,1,1,1,1,1,1,1,1,1,1,1,0,0,1,1,1,1,1,0,1,1,1,1,1,1,1,1,1,1,0,1,1,1,1,1,1,1,1]",1,,,,,,stimuli/grey_butterfly.png,stimuli/white_butterfly.png,2,stimuli/yellow_flower.png,stimuli/blue_flower.png,stimuli/green_flower.png,stimuli/red_flower.png,left,stimuli/objects/dromedary.jpg,0,5,stimuli/white_butterfly.png,1,7,2020-12-22_15h34.33.053,premce3DEU_ses-02_part-01_label-phase1,2020.1.2,Win32,60,,,,,right,0,0.404,0,30,30,30,1,,,,,,,,
,,,,,1,"[0,1,1,1,1,1,1,1,1,0,1,1,1,1,1,0,1,0,1,1,1,1,1,1,1,1,1,1,1,1,0,1,1,1,1,1,1,0,1,1,1,1,1,1,1,1,1,1,1,1,1,0,0,0,1,0,1,0,1,1,1,1,1,1,1,1,1,0,0,1,1,1,1,1,1,1,1,1,1,1,1,1,1,1,1,1,1,0,0,0,0,1,1,1,1,1,1,0,1,1,1,1,1,1,1,1,1,1,1,1,1,1,1,1,1,1,1,1,1,1,1,1,1,0,0,1,1,1,1,1,0,1,1,1,1,1,1,1,1,1,1,0,1,1,1,1,1,1,1,1]",1,,,,,,stimuli/white_butterfly.png,stimuli/grey_butterfly.png,2,stimuli/yellow_flower.png,stimuli/green_flower.png,stimuli/blue_flower.png,stimuli/red_flower.png,up,stimuli/objects/cactus.jpg,1,5,stimuli/grey_butterfly.png,1,7,2020-12-22_15h34.33.053,premce3DEU_ses-02_part-01_label-phase1,2020.1.2,Win32,60,,,,,up,1,0.556,0,31,31,31,1,,,,,,,,
,,,,,1,"[0,1,1,1,1,1,1,1,1,0,1,1,1,1,1,0,1,0,1,1,1,1,1,1,1,1,1,1,1,1,0,1,1,1,1,1,1,0,1,1,1,1,1,1,1,1,1,1,1,1,1,0,0,0,1,0,1,0,1,1,1,1,1,1,1,1,1,0,0,1,1,1,1,1,1,1,1,1,1,1,1,1,1,1,1,1,1,0,0,0,0,1,1,1,1,1,1,0,1,1,1,1,1,1,1,1,1,1,1,1,1,1,1,1,1,1,1,1,1,1,1,1,1,0,0,1,1,1,1,1,0,1,1,1,1,1,1,1,1,1,1,0,1,1,1,1,1,1,1,1,1]",1,,,,,,stimuli/grey_butterfly.png,stimuli/white_butterfly.png,2,stimuli/green_flower.png,stimuli/red_flower.png,stimuli/blue_flower.png,stimuli/yellow_flower.png,up,stimuli/objects/lionstatue.jpg,1,5,stimuli/white_butterfly.png,1,7,2020-12-22_15h34.33.053,premce3DEU_ses-02_part-01_label-phase1,2020.1.2,Win32,60,,,,,up,1,0.603,0,32,32,32,1,,,,,,,,
,,,,,1,"[0,1,1,1,1,1,1,1,1,0,1,1,1,1,1,0,1,0,1,1,1,1,1,1,1,1,1,1,1,1,0,1,1,1,1,1,1,0,1,1,1,1,1,1,1,1,1,1,1,1,1,0,0,0,1,0,1,0,1,1,1,1,1,1,1,1,1,0,0,1,1,1,1,1,1,1,1,1,1,1,1,1,1,1,1,1,1,0,0,0,0,1,1,1,1,1,1,0,1,1,1,1,1,1,1,1,1,1,1,1,1,1,1,1,1,1,1,1,1,1,1,1,1,0,0,1,1,1,1,1,0,1,1,1,1,1,1,1,1,1,1,0,1,1,1,1,1,1,1,1,1,1]",1,,,,,,stimuli/grey_butterfly.png,stimuli/white_butterfly.png,1,stimuli/red_flower.png,stimuli/yellow_flower.png,stimuli/blue_flower.png,stimuli/green_flower.png,right,stimuli/objects/locomotive.jpg,1,5,stimuli/grey_butterfly.png,1,7,2020-12-22_15h34.33.053,premce3DEU_ses-02_part-01_label-phase1,2020.1.2,Win32,60,,,,,right,1,0.698,0,33,33,33,1,,,,,,,,
,,,,,1,"[0,1,1,1,1,1,1,1,1,0,1,1,1,1,1,0,1,0,1,1,1,1,1,1,1,1,1,1,1,1,0,1,1,1,1,1,1,0,1,1,1,1,1,1,1,1,1,1,1,1,1,0,0,0,1,0,1,0,1,1,1,1,1,1,1,1,1,0,0,1,1,1,1,1,1,1,1,1,1,1,1,1,1,1,1,1,1,0,0,0,0,1,1,1,1,1,1,0,1,1,1,1,1,1,1,1,1,1,1,1,1,1,1,1,1,1,1,1,1,1,1,1,1,0,0,1,1,1,1,1,0,1,1,1,1,1,1,1,1,1,1,0,1,1,1,1,1,1,1,1,1,1,1]",1,,,,,,stimuli/grey_butterfly.png,stimuli/white_butterfly.png,2,stimuli/red_flower.png,stimuli/green_flower.png,stimuli/blue_flower.png,stimuli/yellow_flower.png,left,stimuli/objects/stepladder.jpg,1,5,stimuli/white_butterfly.png,1,7,2020-12-22_15h34.33.053,premce3DEU_ses-02_part-01_label-phase1,2020.1.2,Win32,60,,,,,left,1,0.873,0,34,34,34,1,,,,,,,,
,,,,,1,"[0,1,1,1,1,1,1,1,1,0,1,1,1,1,1,0,1,0,1,1,1,1,1,1,1,1,1,1,1,1,0,1,1,1,1,1,1,0,1,1,1,1,1,1,1,1,1,1,1,1,1,0,0,0,1,0,1,0,1,1,1,1,1,1,1,1,1,0,0,1,1,1,1,1,1,1,1,1,1,1,1,1,1,1,1,1,1,0,0,0,0,1,1,1,1,1,1,0,1,1,1,1,1,1,1,1,1,1,1,1,1,1,1,1,1,1,1,1,1,1,1,1,1,0,0,1,1,1,1,1,0,1,1,1,1,1,1,1,1,1,1,0,1,1,1,1,1,1,1,1,1,1,1,1]",1,,,,,,stimuli/grey_butterfly.png,stimuli/white_butterfly.png,2,stimuli/blue_flower.png,stimuli/red_flower.png,stimuli/yellow_flower.png,stimuli/green_flower.png,up,stimuli/objects/butterfly2.jpg,1,5,stimuli/white_butterfly.png,1,7,2020-12-22_15h34.33.053,premce3DEU_ses-02_part-01_label-phase1,2020.1.2,Win32,60,,,,,up,1,0.629,0,35,35,35,1,,,,,,,,
,,,,,1,"[0,1,1,1,1,1,1,1,1,0,1,1,1,1,1,0,1,0,1,1,1,1,1,1,1,1,1,1,1,1,0,1,1,1,1,1,1,0,1,1,1,1,1,1,1,1,1,1,1,1,1,0,0,0,1,0,1,0,1,1,1,1,1,1,1,1,1,0,0,1,1,1,1,1,1,1,1,1,1,1,1,1,1,1,1,1,1,0,0,0,0,1,1,1,1,1,1,0,1,1,1,1,1,1,1,1,1,1,1,1,1,1,1,1,1,1,1,1,1,1,1,1,1,0,0,1,1,1,1,1,0,1,1,1,1,1,1,1,1,1,1,0,1,1,1,1,1,1,1,1,1,1,1,1,1]",1,,,,,,stimuli/white_butterfly.png,stimuli/grey_butterfly.png,2,stimuli/blue_flower.png,stimuli/yellow_flower.png,stimuli/green_flower.png,stimuli/red_flower.png,down,stimuli/objects/battleaxe.jpg,1,5,stimuli/grey_butterfly.png,1,7,2020-12-22_15h34.33.053,premce3DEU_ses-02_part-01_label-phase1,2020.1.2,Win32,60,,,,,down,1,0.755,0,36,36,36,1,,,,,,,,
,,,,,1,"[0,1,1,1,1,1,1,1,1,0,1,1,1,1,1,0,1,0,1,1,1,1,1,1,1,1,1,1,1,1,0,1,1,1,1,1,1,0,1,1,1,1,1,1,1,1,1,1,1,1,1,0,0,0,1,0,1,0,1,1,1,1,1,1,1,1,1,0,0,1,1,1,1,1,1,1,1,1,1,1,1,1,1,1,1,1,1,0,0,0,0,1,1,1,1,1,1,0,1,1,1,1,1,1,1,1,1,1,1,1,1,1,1,1,1,1,1,1,1,1,1,1,1,0,0,1,1,1,1,1,0,1,1,1,1,1,1,1,1,1,1,0,1,1,1,1,1,1,1,1,1,1,1,1,1,1]",1,,,,,,stimuli/grey_butterfly.png,stimuli/white_butterfly.png,2,stimuli/red_flower.png,stimuli/yellow_flower.png,stimuli/blue_flower.png,stimuli/green_flower.png,left,stimuli/objects/crown.jpg,1,5,stimuli/white_butterfly.png,1,7,2020-12-22_15h34.33.053,premce3DEU_ses-02_part-01_label-phase1,2020.1.2,Win32,60,,,,,left,1,0.536,0,37,37,37,1,,,,,,,,
,,,,,0,"[0,1,1,1,1,1,1,1,1,0,1,1,1,1,1,0,1,0,1,1,1,1,1,1,1,1,1,1,1,1,0,1,1,1,1,1,1,0,1,1,1,1,1,1,1,1,1,1,1,1,1,0,0,0,1,0,1,0,1,1,1,1,1,1,1,1,1,0,0,1,1,1,1,1,1,1,1,1,1,1,1,1,1,1,1,1,1,0,0,0,0,1,1,1,1,1,1,0,1,1,1,1,1,1,1,1,1,1,1,1,1,1,1,1,1,1,1,1,1,1,1,1,1,0,0,1,1,1,1,1,0,1,1,1,1,1,1,1,1,1,1,0,1,1,1,1,1,1,1,1,1,1,1,1,1,1,1]",1,,,,,,stimuli/white_butterfly.png,stimuli/grey_butterfly.png,1,stimuli/blue_flower.png,stimuli/green_flower.png,stimuli/red_flower.png,stimuli/yellow_flower.png,up,stimuli/objects/dolphin01.jpg,0,5,stimuli/white_butterfly.png,1,7,2020-12-22_15h34.33.053,premce3DEU_ses-02_part-01_label-phase1,2020.1.2,Win32,60,,,,,down,0,0.638,0,38,38,38,1,,,,,,,,
,,,,,0,"[0,1,1,1,1,1,1,1,1,0,1,1,1,1,1,0,1,0,1,1,1,1,1,1,1,1,1,1,1,1,0,1,1,1,1,1,1,0,1,1,1,1,1,1,1,1,1,1,1,1,1,0,0,0,1,0,1,0,1,1,1,1,1,1,1,1,1,0,0,1,1,1,1,1,1,1,1,1,1,1,1,1,1,1,1,1,1,0,0,0,0,1,1,1,1,1,1,0,1,1,1,1,1,1,1,1,1,1,1,1,1,1,1,1,1,1,1,1,1,1,1,1,1,0,0,1,1,1,1,1,0,1,1,1,1,1,1,1,1,1,1,0,1,1,1,1,1,1,1,1,1,1,1,1,1,1,1]",0,,,,,,stimuli/grey_butterfly.png,stimuli/white_butterfly.png,2,stimuli/blue_flower.png,stimuli/yellow_flower.png,stimuli/green_flower.png,stimuli/red_flower.png,right,stimuli/objects/snowshovel.jpg,1,5,stimuli/white_butterfly.png,1,7,2020-12-22_15h34.33.053,premce3DEU_ses-02_part-01_label-phase1,2020.1.2,Win32,60,,,,,down,0,0.575,0,39,39,39,1,,,,,,,,
,,,,,1,"[0,1,1,1,1,1,1,1,1,0,1,1,1,1,1,0,1,0,1,1,1,1,1,1,1,1,1,1,1,1,0,1,1,1,1,1,1,0,1,1,1,1,1,1,1,1,1,1,1,1,1,0,0,0,1,0,1,0,1,1,1,1,1,1,1,1,1,0,0,1,1,1,1,1,1,1,1,1,1,1,1,1,1,1,1,1,1,0,0,0,0,1,1,1,1,1,1,0,1,1,1,1,1,1,1,1,1,1,1,1,1,1,1,1,1,1,1,1,1,1,1,1,1,0,0,1,1,1,1,1,0,1,1,1,1,1,1,1,1,1,1,0,1,1,1,1,1,1,1,1,1,1,1,1,1,1,1,0]",1,,,,,,stimuli/white_butterfly.png,stimuli/grey_butterfly.png,2,stimuli/green_flower.png,stimuli/yellow_flower.png,stimuli/red_flower.png,stimuli/blue_flower.png,left,stimuli/objects/lightswitch01.jpg,1,5,stimuli/grey_butterfly.png,1,7,2020-12-22_15h34.33.053,premce3DEU_ses-02_part-01_label-phase1,2020.1.2,Win32,60,,,,,left,1,0.483,0,40,40,40,1,,,,,,,,
,,,,,0,"[0,1,1,1,1,1,1,1,1,0,1,1,1,1,1,0,1,0,1,1,1,1,1,1,1,1,1,1,1,1,0,1,1,1,1,1,1,0,1,1,1,1,1,1,1,1,1,1,1,1,1,0,0,0,1,0,1,0,1,1,1,1,1,1,1,1,1,0,0,1,1,1,1,1,1,1,1,1,1,1,1,1,1,1,1,1,1,0,0,0,0,1,1,1,1,1,1,0,1,1,1,1,1,1,1,1,1,1,1,1,1,1,1,1,1,1,1,1,1,1,1,1,1,0,0,1,1,1,1,1,0,1,1,1,1,1,1,1,1,1,1,0,1,1,1,1,1,1,1,1,1,1,1,1,1,1,1,0,1]",1,,,,,,stimuli/grey_butterfly.png,stimuli/white_butterfly.png,2,stimuli/yellow_flower.png,stimuli/red_flower.png,stimuli/green_flower.png,stimuli/blue_flower.png,right,stimuli/objects/bleachers.jpg,0,5,stimuli/white_butterfly.png,1,7,2020-12-22_15h34.33.053,premce3DEU_ses-02_part-01_label-phase1,2020.1.2,Win32,60,,,,,up,0,0.485,0,41,41,41,1,,,,,,,,
,,,,,,,,,,,,,,,,,,,,,,,,,,7,2020-12-22_15h34.33.053,premce3DEU_ses-02_part-01_label-phase1,2020.1.2,Win32,60,,,,,,,,,,,,,,,,,,,space,7.218
