instructions_loop.thisRepN,instructions_loop.thisTrialN,instructions_loop.thisN,instructions_loop.thisIndex,instructions_loop.ran,text1,text2,text3,participant,date,expName,psychopyVersion,OS,frameRate,recog_resp.keys,recog_resp.rt,conf_resp.keys,conf_resp.rt,recog_loop.thisRepN,recog_loop.thisTrialN,recog_loop.thisN,recog_loop.thisIndex,recog_loop.ran,images,corr_ans,type,order,key_resp_break.keys,key_resp_break.rt,list_loop.thisRepN,list_loop.thisTrialN,list_loop.thisN,list_loop.thisIndex,list_loop.ran,recog_list
0,0,0,0,1,Willkommen zum letzten Teil des Experiments!,,Mit der LEERTASTE kannst du mit der Aufgabe fortfahren.,7,2020-12-22_15h56.46.254,premce3DEU_ses-02_part-02_label-phase2,2020.1.2,Win32,60,,,,,,,,,,,,,,,,,,,,,
0,1,1,1,1,,"Jetzt werden wir dir einige Bilder zeigen.

Bitte gib zu jedem Bild an, ob du du es im Verlauf des Experiments gesehen hast.

Drücke die LINKE PFEILTASTE für JA
Drücke die RECHTE PFEILTASTE für NEIN

",Mit der LEERTASTE kannst du mit der Aufgabe fortfahren.,7,2020-12-22_15h56.46.254,premce3DEU_ses-02_part-02_label-phase2,2020.1.2,Win32,60,,,,,,,,,,,,,,,,,,,,,
0,2,2,2,1,,"Anschließend bitten wir dich anzugeben wie sicher du dir bei deiner Wahl bist.

Bitte nutze die Zifferntasten von 1 bis 4 am oberen Ende deiner Tastatur um anzugeben, wie sicher du dir bei deiner Antwort bist.

Die Zahlen stehen für

1 = Sehr unsicher
2 = Unsicher
3 = Sicher
4 = Sehr sicher",Mit der LEERTASTE kannst du mit der Aufgabe fortfahren.,7,2020-12-22_15h56.46.254,premce3DEU_ses-02_part-02_label-phase2,2020.1.2,Win32,60,,,,,,,,,,,,,,,,,,,,,
,,,,,,,,7,2020-12-22_15h56.46.254,premce3DEU_ses-02_part-02_label-phase2,2020.1.2,Win32,60,right,1.433,3,2.281,0,0,0,110,1,stimuli/objects/funnel.jpg,right,new,271,,,,,,,,
,,,,,,,,7,2020-12-22_15h56.46.254,premce3DEU_ses-02_part-02_label-phase2,2020.1.2,Win32,60,left,2.022,2,1.281,0,1,1,44,1,stimuli/objects/donut.jpg,left,old,205,,,,,,,,
,,,,,,,,7,2020-12-22_15h56.46.254,premce3DEU_ses-02_part-02_label-phase2,2020.1.2,Win32,60,left,1.098,3,1.096,0,2,2,103,1,stimuli/objects/seagull.jpg,left,old,264,,,,,,,,
,,,,,,,,7,2020-12-22_15h56.46.254,premce3DEU_ses-02_part-02_label-phase2,2020.1.2,Win32,60,left,1.011,4,0.5,0,3,3,22,1,stimuli/objects/crab01.jpg,left,old,183,,,,,,,,
,,,,,,,,7,2020-12-22_15h56.46.254,premce3DEU_ses-02_part-02_label-phase2,2020.1.2,Win32,60,right,1.742,3,1.516,0,4,4,106,1,stimuli/objects/squirrel.jpg,right,new,267,,,,,,,,
,,,,,,,,7,2020-12-22_15h56.46.254,premce3DEU_ses-02_part-02_label-phase2,2020.1.2,Win32,60,left,1.239,4,0.599,0,5,5,16,1,stimuli/objects/dartboard.jpg,left,old,177,,,,,,,,
,,,,,,,,7,2020-12-22_15h56.46.254,premce3DEU_ses-02_part-02_label-phase2,2020.1.2,Win32,60,right,1.406,2,0.888,0,6,6,84,1,stimuli/objects/carbattery.jpg,right,new,245,,,,,,,,
,,,,,,,,7,2020-12-22_15h56.46.254,premce3DEU_ses-02_part-02_label-phase2,2020.1.2,Win32,60,left,1.005,4,0.433,0,7,7,147,1,stimuli/objects/bleachers.jpg,left,old,308,,,,,,,,
,,,,,,,,7,2020-12-22_15h56.46.254,premce3DEU_ses-02_part-02_label-phase2,2020.1.2,Win32,60,right,0.987,1,0.549,0,8,8,26,1,stimuli/objects/schoolbus.jpg,right,new,187,,,,,,,,
,,,,,,,,7,2020-12-22_15h56.46.254,premce3DEU_ses-02_part-02_label-phase2,2020.1.2,Win32,60,left,1.055,4,0.488,0,9,9,7,1,stimuli/objects/bolt01a.jpg,left,old,168,,,,,,,,
,,,,,,,,7,2020-12-22_15h56.46.254,premce3DEU_ses-02_part-02_label-phase2,2020.1.2,Win32,60,left,3.607,3,0.601,0,10,10,97,1,stimuli/objects/greywolf.jpg,left,old,258,,,,,,,,
,,,,,,,,7,2020-12-22_15h56.46.254,premce3DEU_ses-02_part-02_label-phase2,2020.1.2,Win32,60,right,2.488,2,1.352,0,11,11,73,1,stimuli/objects/barrel01.jpg,left,old,234,,,,,,,,
,,,,,,,,7,2020-12-22_15h56.46.254,premce3DEU_ses-02_part-02_label-phase2,2020.1.2,Win32,60,left,1.074,4,0.948,0,12,12,67,1,stimuli/objects/snowshovel.jpg,left,old,228,,,,,,,,
,,,,,,,,7,2020-12-22_15h56.46.254,premce3DEU_ses-02_part-02_label-phase2,2020.1.2,Win32,60,left,0.854,4,0.431,0,13,13,117,1,stimuli/objects/fingerprint.jpg,left,old,278,,,,,,,,
,,,,,,,,7,2020-12-22_15h56.46.254,premce3DEU_ses-02_part-02_label-phase2,2020.1.2,Win32,60,right,0.936,3,1.352,0,14,14,131,1,stimuli/objects/boxingglove01.jpg,right,new,292,,,,,,,,
,,,,,,,,7,2020-12-22_15h56.46.254,premce3DEU_ses-02_part-02_label-phase2,2020.1.2,Win32,60,left,5.415,1,0.714,0,15,15,61,1,stimuli/objects/parrot01.jpg,right,new,222,,,,,,,,
,,,,,,,,7,2020-12-22_15h56.46.254,premce3DEU_ses-02_part-02_label-phase2,2020.1.2,Win32,60,right,3.044,3,1.189,0,16,16,89,1,stimuli/objects/cruiseship.jpg,left,old,250,,,,,,,,
,,,,,,,,7,2020-12-22_15h56.46.254,premce3DEU_ses-02_part-02_label-phase2,2020.1.2,Win32,60,left,4.59,1,0.834,0,17,17,19,1,stimuli/objects/zipper.jpg,right,new,180,,,,,,,,
,,,,,,,,7,2020-12-22_15h56.46.254,premce3DEU_ses-02_part-02_label-phase2,2020.1.2,Win32,60,left,2.752,1,0.363,0,18,18,121,1,stimuli/objects/shield02.jpg,right,new,282,,,,,,,,
,,,,,,,,7,2020-12-22_15h56.46.254,premce3DEU_ses-02_part-02_label-phase2,2020.1.2,Win32,60,right,1.326,4,0.67,0,19,19,137,1,stimuli/objects/waterfall.jpg,right,new,298,,,,,,,,
,,,,,,,,7,2020-12-22_15h56.46.254,premce3DEU_ses-02_part-02_label-phase2,2020.1.2,Win32,60,right,2.405,3,0.411,0,20,20,47,1,stimuli/objects/candycane01a.jpg,left,old,208,,,,,,,,
,,,,,,,,7,2020-12-22_15h56.46.254,premce3DEU_ses-02_part-02_label-phase2,2020.1.2,Win32,60,right,0.937,3,0.982,0,21,21,136,1,stimuli/objects/mouse.jpg,right,new,297,,,,,,,,
,,,,,,,,7,2020-12-22_15h56.46.254,premce3DEU_ses-02_part-02_label-phase2,2020.1.2,Win32,60,right,1.321,3,0.51,0,22,22,33,1,stimuli/objects/noparkingsign.jpg,right,new,194,,,,,,,,
,,,,,,,,7,2020-12-22_15h56.46.254,premce3DEU_ses-02_part-02_label-phase2,2020.1.2,Win32,60,left,0.915,4,0.465,0,23,23,68,1,stimuli/objects/drumset.jpg,right,new,229,,,,,,,,
,,,,,,,,7,2020-12-22_15h56.46.254,premce3DEU_ses-02_part-02_label-phase2,2020.1.2,Win32,60,right,0.842,2,0.316,0,24,24,13,1,stimuli/objects/sailboat.jpg,left,old,174,,,,,,,,
,,,,,,,,7,2020-12-22_15h56.46.254,premce3DEU_ses-02_part-02_label-phase2,2020.1.2,Win32,60,right,1.478,4,0.332,0,25,25,62,1,stimuli/objects/painting.jpg,right,new,223,,,,,,,,
,,,,,,,,7,2020-12-22_15h56.46.254,premce3DEU_ses-02_part-02_label-phase2,2020.1.2,Win32,60,right,3.308,2,0.839,0,26,26,125,1,stimuli/objects/whiteout.jpg,left,old,286,,,,,,,,
,,,,,,,,7,2020-12-22_15h56.46.254,premce3DEU_ses-02_part-02_label-phase2,2020.1.2,Win32,60,right,1.155,4,0.397,0,27,27,53,1,stimuli/objects/parachute.jpg,right,new,214,,,,,,,,
,,,,,,,,7,2020-12-22_15h56.46.254,premce3DEU_ses-02_part-02_label-phase2,2020.1.2,Win32,60,left,3.073,4,0.6,0,28,28,2,1,stimuli/objects/moon.jpg,left,old,163,,,,,,,,
,,,,,,,,7,2020-12-22_15h56.46.254,premce3DEU_ses-02_part-02_label-phase2,2020.1.2,Win32,60,right,0.638,2,0.981,0,29,29,154,1,stimuli/objects/frisbee.jpg,left,old,315,,,,,,,,
,,,,,,,,7,2020-12-22_15h56.46.254,premce3DEU_ses-02_part-02_label-phase2,2020.1.2,Win32,60,left,2.09,4,0.365,0,30,30,14,1,stimuli/objects/ipad02.jpg,left,old,175,,,,,,,,
,,,,,,,,7,2020-12-22_15h56.46.254,premce3DEU_ses-02_part-02_label-phase2,2020.1.2,Win32,60,right,0.69,3,1.188,0,31,31,9,1,stimuli/objects/flag.jpg,right,new,170,,,,,,,,
,,,,,,,,7,2020-12-22_15h56.46.254,premce3DEU_ses-02_part-02_label-phase2,2020.1.2,Win32,60,right,3.035,4,0.429,0,32,32,94,1,stimuli/objects/scorpion.jpg,right,new,255,,,,,,,,
,,,,,,,,7,2020-12-22_15h56.46.254,premce3DEU_ses-02_part-02_label-phase2,2020.1.2,Win32,60,right,1.704,3,1.245,0,33,33,11,1,stimuli/objects/dolphin01.jpg,left,old,172,,,,,,,,
,,,,,,,,7,2020-12-22_15h56.46.254,premce3DEU_ses-02_part-02_label-phase2,2020.1.2,Win32,60,left,8.331,2,0.72,0,34,34,127,1,stimuli/objects/shelf.jpg,right,new,288,,,,,,,,
,,,,,,,,7,2020-12-22_15h56.46.254,premce3DEU_ses-02_part-02_label-phase2,2020.1.2,Win32,60,left,0.875,4,0.564,0,35,35,91,1,stimuli/objects/shed02.jpg,right,new,252,,,,,,,,
,,,,,,,,7,2020-12-22_15h56.46.254,premce3DEU_ses-02_part-02_label-phase2,2020.1.2,Win32,60,left,2.175,4,0.334,0,36,36,140,1,stimuli/objects/treadmill.jpg,left,old,301,,,,,,,,
,,,,,,,,7,2020-12-22_15h56.46.254,premce3DEU_ses-02_part-02_label-phase2,2020.1.2,Win32,60,right,1.109,2,0.3,0,37,37,108,1,stimuli/objects/cork02.jpg,left,old,269,,,,,,,,
,,,,,,,,7,2020-12-22_15h56.46.254,premce3DEU_ses-02_part-02_label-phase2,2020.1.2,Win32,60,left,3.845,4,0.326,0,38,38,142,1,stimuli/objects/lightswitch01.jpg,left,old,303,,,,,,,,
,,,,,,,,7,2020-12-22_15h56.46.254,premce3DEU_ses-02_part-02_label-phase2,2020.1.2,Win32,60,left,1.91,1,0.008,0,39,39,46,1,stimuli/objects/kneepad01c.jpg,right,new,207,,,,,,,,
,,,,,,,,7,2020-12-22_15h56.46.254,premce3DEU_ses-02_part-02_label-phase2,2020.1.2,Win32,60,left,2.021,2,0.415,0,40,40,27,1,stimuli/objects/tombstone.jpg,right,new,188,,,,,,,,
,,,,,,,,7,2020-12-22_15h56.46.254,premce3DEU_ses-02_part-02_label-phase2,2020.1.2,Win32,60,right,1.908,1,0.388,0,41,41,120,1,stimuli/objects/airhockeytable.jpg,right,new,281,,,,,,,,
,,,,,,,,7,2020-12-22_15h56.46.254,premce3DEU_ses-02_part-02_label-phase2,2020.1.2,Win32,60,right,2.679,2,1.668,0,42,42,105,1,stimuli/objects/beerbottle.jpg,left,old,266,,,,,,,,
,,,,,,,,7,2020-12-22_15h56.46.254,premce3DEU_ses-02_part-02_label-phase2,2020.1.2,Win32,60,right,1.525,4,0.705,0,43,43,40,1,stimuli/objects/beehive.jpg,right,new,201,,,,,,,,
,,,,,,,,7,2020-12-22_15h56.46.254,premce3DEU_ses-02_part-02_label-phase2,2020.1.2,Win32,60,right,1.139,4,0.517,0,44,44,75,1,stimuli/objects/bookshelf.jpg,left,old,236,,,,,,,,
,,,,,,,,7,2020-12-22_15h56.46.254,premce3DEU_ses-02_part-02_label-phase2,2020.1.2,Win32,60,right,1.828,3,0.318,0,45,45,45,1,stimuli/objects/siamesecat.jpg,right,new,206,,,,,,,,
,,,,,,,,7,2020-12-22_15h56.46.254,premce3DEU_ses-02_part-02_label-phase2,2020.1.2,Win32,60,right,0.82,3,0.401,0,46,46,79,1,stimuli/objects/polarbear.jpg,left,old,240,,,,,,,,
,,,,,,,,7,2020-12-22_15h56.46.254,premce3DEU_ses-02_part-02_label-phase2,2020.1.2,Win32,60,right,0.806,3,0.349,0,47,47,60,1,stimuli/objects/hammerheadshark.jpg,right,new,221,,,,,,,,
,,,,,,,,7,2020-12-22_15h56.46.254,premce3DEU_ses-02_part-02_label-phase2,2020.1.2,Win32,60,right,0.939,3,0.303,0,48,48,146,1,stimuli/objects/tie02.jpg,left,old,307,,,,,,,,
,,,,,,,,7,2020-12-22_15h56.46.254,premce3DEU_ses-02_part-02_label-phase2,2020.1.2,Win32,60,right,0.589,4,0.382,0,49,49,130,1,stimuli/objects/pirateflag.jpg,left,old,291,,,,,,,,
,,,,,,,,7,2020-12-22_15h56.46.254,premce3DEU_ses-02_part-02_label-phase2,2020.1.2,Win32,60,right,0.924,4,0.263,0,50,50,139,1,stimuli/objects/locomotive.jpg,left,old,300,,,,,,,,
,,,,,,,,7,2020-12-22_15h56.46.254,premce3DEU_ses-02_part-02_label-phase2,2020.1.2,Win32,60,right,0.638,2,1.695,0,51,51,37,1,stimuli/objects/football.jpg,left,old,198,,,,,,,,
,,,,,,,,7,2020-12-22_15h56.46.254,premce3DEU_ses-02_part-02_label-phase2,2020.1.2,Win32,60,right,0.923,4,0.379,0,52,52,64,1,stimuli/objects/trojanhorse.jpg,right,new,225,,,,,,,,
,,,,,,,,7,2020-12-22_15h56.46.254,premce3DEU_ses-02_part-02_label-phase2,2020.1.2,Win32,60,right,0.746,1,1.571,0,53,53,112,1,stimuli/objects/hotdog.jpg,left,old,273,,,,,,,,
,,,,,,,,7,2020-12-22_15h56.46.254,premce3DEU_ses-02_part-02_label-phase2,2020.1.2,Win32,60,left,2.271,3,1.497,0,54,54,80,1,stimuli/objects/floorlamp.jpg,right,new,241,,,,,,,,
,,,,,,,,7,2020-12-22_15h56.46.254,premce3DEU_ses-02_part-02_label-phase2,2020.1.2,Win32,60,right,1.455,4,1.786,0,55,55,109,1,stimuli/objects/spiderweb.jpg,right,new,270,,,,,,,,
,,,,,,,,7,2020-12-22_15h56.46.254,premce3DEU_ses-02_part-02_label-phase2,2020.1.2,Win32,60,right,2.675,4,0.334,0,56,56,93,1,stimuli/objects/slushiemachine.jpg,right,new,254,,,,,,,,
,,,,,,,,7,2020-12-22_15h56.46.254,premce3DEU_ses-02_part-02_label-phase2,2020.1.2,Win32,60,right,1.956,1,0.285,0,57,57,153,1,stimuli/objects/fluorescentlightbulb.jpg,left,old,314,,,,,,,,
,,,,,,,,7,2020-12-22_15h56.46.254,premce3DEU_ses-02_part-02_label-phase2,2020.1.2,Win32,60,left,3.491,1,0.25,0,58,58,42,1,stimuli/objects/asianelephant.jpg,left,old,203,,,,,,,,
,,,,,,,,7,2020-12-22_15h56.46.254,premce3DEU_ses-02_part-02_label-phase2,2020.1.2,Win32,60,right,1.093,1,1.481,0,59,59,123,1,stimuli/objects/ironingboard01.jpg,left,old,284,,,,,,,,
,,,,,,,,7,2020-12-22_15h56.46.254,premce3DEU_ses-02_part-02_label-phase2,2020.1.2,Win32,60,right,0.938,1,0.335,0,60,60,155,1,stimuli/objects/fishingrod.jpg,left,old,316,,,,,,,,
,,,,,,,,7,2020-12-22_15h56.46.254,premce3DEU_ses-02_part-02_label-phase2,2020.1.2,Win32,60,right,1.705,1,0.218,0,61,61,18,1,stimuli/objects/showerhead01.jpg,left,old,179,,,,,,,,
,,,,,,,,7,2020-12-22_15h56.46.254,premce3DEU_ses-02_part-02_label-phase2,2020.1.2,Win32,60,right,0.93,4,1.301,0,62,62,145,1,stimuli/objects/rooster.jpg,right,new,306,,,,,,,,
,,,,,,,,7,2020-12-22_15h56.46.254,premce3DEU_ses-02_part-02_label-phase2,2020.1.2,Win32,60,right,1.123,1,1.367,0,63,63,4,1,stimuli/objects/blender.jpg,left,old,165,,,,,,,,
,,,,,,,,7,2020-12-22_15h56.46.254,premce3DEU_ses-02_part-02_label-phase2,2020.1.2,Win32,60,right,0.656,2,0.901,0,64,64,58,1,stimuli/objects/tricycle.jpg,left,old,219,,,,,,,,
,,,,,,,,7,2020-12-22_15h56.46.254,premce3DEU_ses-02_part-02_label-phase2,2020.1.2,Win32,60,right,1.94,1,0.315,0,65,65,17,1,stimuli/objects/saltshaker03a.jpg,right,new,178,,,,,,,,
,,,,,,,,7,2020-12-22_15h56.46.254,premce3DEU_ses-02_part-02_label-phase2,2020.1.2,Win32,60,right,0.84,1,0.497,0,66,66,150,1,stimuli/objects/strap.jpg,right,new,311,,,,,,,,
,,,,,,,,7,2020-12-22_15h56.46.254,premce3DEU_ses-02_part-02_label-phase2,2020.1.2,Win32,60,right,2.506,4,1.05,0,67,67,90,1,stimuli/objects/battleaxe.jpg,left,old,251,,,,,,,,
,,,,,,,,7,2020-12-22_15h56.46.254,premce3DEU_ses-02_part-02_label-phase2,2020.1.2,Win32,60,left,2.638,4,0.664,0,68,68,152,1,stimuli/objects/harmonica.jpg,right,new,313,,,,,,,,
,,,,,,,,7,2020-12-22_15h56.46.254,premce3DEU_ses-02_part-02_label-phase2,2020.1.2,Win32,60,right,0.842,4,0.301,0,69,69,1,1,stimuli/objects/tent.jpg,left,old,162,,,,,,,,
,,,,,,,,7,2020-12-22_15h56.46.254,premce3DEU_ses-02_part-02_label-phase2,2020.1.2,Win32,60,right,1.541,2,0.77,0,70,70,99,1,stimuli/objects/bacon.jpg,left,old,260,,,,,,,,
,,,,,,,,7,2020-12-22_15h56.46.254,premce3DEU_ses-02_part-02_label-phase2,2020.1.2,Win32,60,left,1.324,4,0.25,0,71,71,114,1,stimuli/objects/cymbal.jpg,left,old,275,,,,,,,,
,,,,,,,,7,2020-12-22_15h56.46.254,premce3DEU_ses-02_part-02_label-phase2,2020.1.2,Win32,60,right,2.076,1,0.431,0,72,72,51,1,stimuli/objects/kangaroo01.jpg,right,new,212,,,,,,,,
,,,,,,,,7,2020-12-22_15h56.46.254,premce3DEU_ses-02_part-02_label-phase2,2020.1.2,Win32,60,left,3.765,2,0.087,0,73,73,0,1,stimuli/objects/hulahoop.jpg,left,old,161,,,,,,,,
,,,,,,,,7,2020-12-22_15h56.46.254,premce3DEU_ses-02_part-02_label-phase2,2020.1.2,Win32,60,left,4.844,1,0.551,0,74,74,24,1,stimuli/objects/jaguar.jpg,left,old,185,,,,,,,,
,,,,,,,,7,2020-12-22_15h56.46.254,premce3DEU_ses-02_part-02_label-phase2,2020.1.2,Win32,60,right,1.039,2,0.965,0,75,75,35,1,stimuli/objects/xylophone.jpg,left,old,196,,,,,,,,
,,,,,,,,7,2020-12-22_15h56.46.254,premce3DEU_ses-02_part-02_label-phase2,2020.1.2,Win32,60,right,1.579,4,1.066,0,76,76,74,1,stimuli/objects/turnstile.jpg,right,new,235,,,,,,,,
,,,,,,,,7,2020-12-22_15h56.46.254,premce3DEU_ses-02_part-02_label-phase2,2020.1.2,Win32,60,right,1.857,4,0.315,0,77,77,133,1,stimuli/objects/kiwi03.jpg,right,new,294,,,,,,,,
,,,,,,,,7,2020-12-22_15h56.46.254,premce3DEU_ses-02_part-02_label-phase2,2020.1.2,Win32,60,right,2.174,2,0.131,0,78,78,32,1,stimuli/objects/cross01.jpg,right,new,193,,,,,,,,
,,,,,,,,7,2020-12-22_15h56.46.254,premce3DEU_ses-02_part-02_label-phase2,2020.1.2,Win32,60,right,0.995,2,0.258,0,79,79,148,1,stimuli/objects/snowglobe.jpg,left,old,309,,,,,,,,
,,,,,,,,7,2020-12-22_15h56.46.254,premce3DEU_ses-02_part-02_label-phase2,2020.1.2,Win32,60,left,1.48,4,0.384,0,80,80,87,1,stimuli/objects/chipmunk.jpg,left,old,248,,,,,,,,
,,,,,,,,7,2020-12-22_15h56.46.254,premce3DEU_ses-02_part-02_label-phase2,2020.1.2,Win32,60,right,0.955,4,0.531,0,81,81,82,1,stimuli/objects/duck01.jpg,left,old,243,,,,,,,,
,,,,,,,,7,2020-12-22_15h56.46.254,premce3DEU_ses-02_part-02_label-phase2,2020.1.2,Win32,60,right,1.445,2,1.988,0,82,82,128,1,stimuli/objects/chime.jpg,left,old,289,,,,,,,,
,,,,,,,,7,2020-12-22_15h56.46.254,premce3DEU_ses-02_part-02_label-phase2,2020.1.2,Win32,60,right,1.192,4,0.357,0,83,83,38,1,stimuli/objects/bread.jpg,right,new,199,,,,,,,,
,,,,,,,,7,2020-12-22_15h56.46.254,premce3DEU_ses-02_part-02_label-phase2,2020.1.2,Win32,60,right,1.056,1,0.317,0,84,84,78,1,stimuli/objects/hockeypuck.jpg,left,old,239,,,,,,,,
,,,,,,,,7,2020-12-22_15h56.46.254,premce3DEU_ses-02_part-02_label-phase2,2020.1.2,Win32,60,right,1.391,4,1.416,0,85,85,34,1,stimuli/objects/shelves.jpg,left,old,195,,,,,,,,
,,,,,,,,7,2020-12-22_15h56.46.254,premce3DEU_ses-02_part-02_label-phase2,2020.1.2,Win32,60,right,1.456,2,0.264,0,86,86,15,1,stimuli/objects/stool01.jpg,left,old,176,,,,,,,,
,,,,,,,,7,2020-12-22_15h56.46.254,premce3DEU_ses-02_part-02_label-phase2,2020.1.2,Win32,60,right,1.244,1,0.35,0,87,87,96,1,stimuli/objects/hockeystick.jpg,left,old,257,,,,,,,,
,,,,,,,,7,2020-12-22_15h56.46.254,premce3DEU_ses-02_part-02_label-phase2,2020.1.2,Win32,60,right,1.072,4,0.883,0,88,88,21,1,stimuli/objects/gorilla.jpg,right,new,182,,,,,,,,
,,,,,,,,7,2020-12-22_15h56.46.254,premce3DEU_ses-02_part-02_label-phase2,2020.1.2,Win32,60,right,1.36,1,0.316,0,89,89,54,1,stimuli/objects/acousticguitar02.jpg,right,new,215,,,,,,,,
,,,,,,,,7,2020-12-22_15h56.46.254,premce3DEU_ses-02_part-02_label-phase2,2020.1.2,Win32,60,right,0.726,1,0.518,0,90,90,132,1,stimuli/objects/windshieldwiper02.jpg,left,old,293,,,,,,,,
,,,,,,,,7,2020-12-22_15h56.46.254,premce3DEU_ses-02_part-02_label-phase2,2020.1.2,Win32,60,right,1.438,4,0.314,0,91,91,65,1,stimuli/objects/spacerover.jpg,right,new,226,,,,,,,,
,,,,,,,,7,2020-12-22_15h56.46.254,premce3DEU_ses-02_part-02_label-phase2,2020.1.2,Win32,60,right,2.736,1,1.307,0,92,92,134,1,stimuli/objects/bikelock.jpg,right,new,295,,,,,,,,
,,,,,,,,7,2020-12-22_15h56.46.254,premce3DEU_ses-02_part-02_label-phase2,2020.1.2,Win32,60,right,0.775,4,0.217,0,93,93,98,1,stimuli/objects/cashregister01.jpg,left,old,259,,,,,,,,
,,,,,,,,7,2020-12-22_15h56.46.254,premce3DEU_ses-02_part-02_label-phase2,2020.1.2,Win32,60,left,3.791,1,0.387,0,94,94,107,1,stimuli/objects/tambourine03.jpg,right,new,268,,,,,,,,
,,,,,,,,7,2020-12-22_15h56.46.254,premce3DEU_ses-02_part-02_label-phase2,2020.1.2,Win32,60,right,1.089,4,0.649,0,95,95,29,1,stimuli/objects/steeringwheel.jpg,right,new,190,,,,,,,,
,,,,,,,,7,2020-12-22_15h56.46.254,premce3DEU_ses-02_part-02_label-phase2,2020.1.2,Win32,60,left,1.097,4,0.278,0,96,96,111,1,stimuli/objects/jellybean.jpg,left,old,272,,,,,,,,
,,,,,,,,7,2020-12-22_15h56.46.254,premce3DEU_ses-02_part-02_label-phase2,2020.1.2,Win32,60,left,1.5,4,0.317,0,97,97,81,1,stimuli/objects/raccoon.jpg,right,new,242,,,,,,,,
,,,,,,,,7,2020-12-22_15h56.46.254,premce3DEU_ses-02_part-02_label-phase2,2020.1.2,Win32,60,left,0.923,4,0.33,0,98,98,8,1,stimuli/objects/cloud.jpg,left,old,169,,,,,,,,
,,,,,,,,7,2020-12-22_15h56.46.254,premce3DEU_ses-02_part-02_label-phase2,2020.1.2,Win32,60,right,0.759,4,0.333,0,99,99,124,1,stimuli/objects/swing.jpg,right,new,285,,,,,,,,
,,,,,,,,7,2020-12-22_15h56.46.254,premce3DEU_ses-02_part-02_label-phase2,2020.1.2,Win32,60,right,0.94,4,0.166,0,100,100,85,1,stimuli/objects/skiboot01a.jpg,left,old,246,,,,,,,,
,,,,,,,,7,2020-12-22_15h56.46.254,premce3DEU_ses-02_part-02_label-phase2,2020.1.2,Win32,60,right,0.659,4,0.352,0,101,101,39,1,stimuli/objects/desktopcomputer.jpg,left,old,200,,,,,,,,
,,,,,,,,7,2020-12-22_15h56.46.254,premce3DEU_ses-02_part-02_label-phase2,2020.1.2,Win32,60,right,1.387,4,0.44,0,102,102,122,1,stimuli/objects/lip.jpg,right,new,283,,,,,,,,
,,,,,,,,7,2020-12-22_15h56.46.254,premce3DEU_ses-02_part-02_label-phase2,2020.1.2,Win32,60,right,0.862,4,0.299,0,103,103,144,1,stimuli/objects/walkietalkie.jpg,right,new,305,,,,,,,,
,,,,,,,,7,2020-12-22_15h56.46.254,premce3DEU_ses-02_part-02_label-phase2,2020.1.2,Win32,60,left,2.522,4,0.351,0,104,104,56,1,stimuli/objects/toyanimal05.jpg,left,old,217,,,,,,,,
,,,,,,,,7,2020-12-22_15h56.46.254,premce3DEU_ses-02_part-02_label-phase2,2020.1.2,Win32,60,left,2.081,3,0.854,0,105,105,31,1,stimuli/objects/horseshoe.jpg,right,new,192,,,,,,,,
,,,,,,,,7,2020-12-22_15h56.46.254,premce3DEU_ses-02_part-02_label-phase2,2020.1.2,Win32,60,right,2.907,2,0.277,0,106,106,158,1,stimuli/objects/bowrake.jpg,right,new,319,,,,,,,,
,,,,,,,,7,2020-12-22_15h56.46.254,premce3DEU_ses-02_part-02_label-phase2,2020.1.2,Win32,60,left,1.428,3,0.36,0,107,107,156,1,stimuli/objects/shovel01.jpg,left,old,317,,,,,,,,
,,,,,,,,7,2020-12-22_15h56.46.254,premce3DEU_ses-02_part-02_label-phase2,2020.1.2,Win32,60,right,1.176,4,0.248,0,108,108,71,1,stimuli/objects/tennisracket.jpg,right,new,232,,,,,,,,
,,,,,,,,7,2020-12-22_15h56.46.254,premce3DEU_ses-02_part-02_label-phase2,2020.1.2,Win32,60,left,2.439,2,0.75,0,109,109,59,1,stimuli/objects/nosmokingsign.jpg,right,new,220,,,,,,,,
,,,,,,,,7,2020-12-22_15h56.46.254,premce3DEU_ses-02_part-02_label-phase2,2020.1.2,Win32,60,right,0.986,4,0.246,0,110,110,83,1,stimuli/objects/recyclingbin.jpg,left,old,244,,,,,,,,
,,,,,,,,7,2020-12-22_15h56.46.254,premce3DEU_ses-02_part-02_label-phase2,2020.1.2,Win32,60,right,0.815,4,0.268,0,111,111,12,1,stimuli/objects/musicsheet.jpg,right,new,173,,,,,,,,
,,,,,,,,7,2020-12-22_15h56.46.254,premce3DEU_ses-02_part-02_label-phase2,2020.1.2,Win32,60,right,2.857,1,0.3,0,112,112,52,1,stimuli/objects/acorn.jpg,left,old,213,,,,,,,,
,,,,,,,,7,2020-12-22_15h56.46.254,premce3DEU_ses-02_part-02_label-phase2,2020.1.2,Win32,60,right,0.795,4,0.169,0,113,113,88,1,stimuli/objects/toilet.jpg,right,new,249,,,,,,,,
,,,,,,,,7,2020-12-22_15h56.46.254,premce3DEU_ses-02_part-02_label-phase2,2020.1.2,Win32,60,right,0.736,4,0.302,0,114,114,86,1,stimuli/objects/trafficlight.jpg,left,old,247,,,,,,,,
,,,,,,,,7,2020-12-22_15h56.46.254,premce3DEU_ses-02_part-02_label-phase2,2020.1.2,Win32,60,right,0.629,4,0.293,0,115,115,104,1,stimuli/objects/rockingchair.jpg,left,old,265,,,,,,,,
,,,,,,,,7,2020-12-22_15h56.46.254,premce3DEU_ses-02_part-02_label-phase2,2020.1.2,Win32,60,right,0.784,4,0.321,0,116,116,69,1,stimuli/objects/bumpercar.jpg,right,new,230,,,,,,,,
,,,,,,,,7,2020-12-22_15h56.46.254,premce3DEU_ses-02_part-02_label-phase2,2020.1.2,Win32,60,right,1.332,3,0.849,0,117,117,135,1,stimuli/objects/penguin.jpg,right,new,296,,,,,,,,
,,,,,,,,7,2020-12-22_15h56.46.254,premce3DEU_ses-02_part-02_label-phase2,2020.1.2,Win32,60,right,0.708,4,0.272,0,118,118,10,1,stimuli/objects/spicerack.jpg,left,old,171,,,,,,,,
,,,,,,,,7,2020-12-22_15h56.46.254,premce3DEU_ses-02_part-02_label-phase2,2020.1.2,Win32,60,left,4.144,2,0.568,0,119,119,119,1,stimuli/objects/sandbarshark.jpg,right,new,280,,,,,,,,
,,,,,,,,7,2020-12-22_15h56.46.254,premce3DEU_ses-02_part-02_label-phase2,2020.1.2,Win32,60,right,1.089,4,0,0,120,120,36,1,stimuli/objects/sandcastle.jpg,left,old,197,,,,,,,,
,,,,,,,,7,2020-12-22_15h56.46.254,premce3DEU_ses-02_part-02_label-phase2,2020.1.2,Win32,60,right,0.658,3,0.771,0,121,121,115,1,stimuli/objects/witchhat.jpg,left,old,276,,,,,,,,
,,,,,,,,7,2020-12-22_15h56.46.254,premce3DEU_ses-02_part-02_label-phase2,2020.1.2,Win32,60,right,0.626,4,0.266,0,122,122,129,1,stimuli/objects/escalator.jpg,left,old,290,,,,,,,,
,,,,,,,,7,2020-12-22_15h56.46.254,premce3DEU_ses-02_part-02_label-phase2,2020.1.2,Win32,60,left,1.081,4,0.267,0,123,123,55,1,stimuli/objects/dogsled.jpg,left,old,216,,,,,,,,
,,,,,,,,7,2020-12-22_15h56.46.254,premce3DEU_ses-02_part-02_label-phase2,2020.1.2,Win32,60,right,0.941,2,2.733,0,124,124,149,1,stimuli/objects/mortarandpestle.jpg,right,new,310,,,,,,,,
,,,,,,,,7,2020-12-22_15h56.46.254,premce3DEU_ses-02_part-02_label-phase2,2020.1.2,Win32,60,right,1.31,2,0.385,0,125,125,30,1,stimuli/objects/key07.jpg,left,old,191,,,,,,,,
,,,,,,,,7,2020-12-22_15h56.46.254,premce3DEU_ses-02_part-02_label-phase2,2020.1.2,Win32,60,left,4.008,1,1.06,0,126,126,6,1,stimuli/objects/popcorn.jpg,right,new,167,,,,,,,,
,,,,,,,,7,2020-12-22_15h56.46.254,premce3DEU_ses-02_part-02_label-phase2,2020.1.2,Win32,60,right,1.028,3,0.85,0,127,127,126,1,stimuli/objects/birdfeeder.jpg,left,old,287,,,,,,,,
,,,,,,,,7,2020-12-22_15h56.46.254,premce3DEU_ses-02_part-02_label-phase2,2020.1.2,Win32,60,left,1.824,2,0.275,0,128,128,92,1,stimuli/objects/mirror02.jpg,left,old,253,,,,,,,,
,,,,,,,,7,2020-12-22_15h56.46.254,premce3DEU_ses-02_part-02_label-phase2,2020.1.2,Win32,60,right,0.943,2,1.195,0,129,129,50,1,stimuli/objects/cowbell.jpg,right,new,211,,,,,,,,
,,,,,,,,7,2020-12-22_15h56.46.254,premce3DEU_ses-02_part-02_label-phase2,2020.1.2,Win32,60,right,1.451,4,0.334,0,130,130,49,1,stimuli/objects/surfboard.jpg,left,old,210,,,,,,,,
,,,,,,,,7,2020-12-22_15h56.46.254,premce3DEU_ses-02_part-02_label-phase2,2020.1.2,Win32,60,right,0.612,4,0.266,0,131,131,57,1,stimuli/objects/spaghetti01.jpg,right,new,218,,,,,,,,
,,,,,,,,7,2020-12-22_15h56.46.254,premce3DEU_ses-02_part-02_label-phase2,2020.1.2,Win32,60,left,1.673,4,0.257,0,132,132,102,1,stimuli/objects/baseballglove.jpg,left,old,263,,,,,,,,
,,,,,,,,7,2020-12-22_15h56.46.254,premce3DEU_ses-02_part-02_label-phase2,2020.1.2,Win32,60,right,0.711,4,0.138,0,133,133,48,1,stimuli/objects/rubikcube.jpg,right,new,209,,,,,,,,
,,,,,,,,7,2020-12-22_15h56.46.254,premce3DEU_ses-02_part-02_label-phase2,2020.1.2,Win32,60,left,4.144,1,0.121,0,134,134,159,1,stimuli/objects/footballhelmet.jpg,left,old,320,,,,,,,,
,,,,,,,,7,2020-12-22_15h56.46.254,premce3DEU_ses-02_part-02_label-phase2,2020.1.2,Win32,60,left,3.328,2,0.125,0,135,135,25,1,stimuli/objects/scooter.jpg,right,new,186,,,,,,,,
,,,,,,,,7,2020-12-22_15h56.46.254,premce3DEU_ses-02_part-02_label-phase2,2020.1.2,Win32,60,right,0.673,4,0.233,0,136,136,3,1,stimuli/objects/bathtub.jpg,left,old,164,,,,,,,,
,,,,,,,,7,2020-12-22_15h56.46.254,premce3DEU_ses-02_part-02_label-phase2,2020.1.2,Win32,60,right,0.694,4,0.166,0,137,137,118,1,stimuli/objects/wallclock.jpg,right,new,279,,,,,,,,
,,,,,,,,7,2020-12-22_15h56.46.254,premce3DEU_ses-02_part-02_label-phase2,2020.1.2,Win32,60,right,2.692,2,0.176,0,138,138,157,1,stimuli/objects/eagle.jpg,right,new,318,,,,,,,,
,,,,,,,,7,2020-12-22_15h56.46.254,premce3DEU_ses-02_part-02_label-phase2,2020.1.2,Win32,60,right,1.112,2,0.372,0,139,139,70,1,stimuli/objects/cormorant.jpg,right,new,231,,,,,,,,
,,,,,,,,7,2020-12-22_15h56.46.254,premce3DEU_ses-02_part-02_label-phase2,2020.1.2,Win32,60,right,1.958,3,3.528,0,140,140,63,1,stimuli/objects/pin.jpg,right,new,224,,,,,,,,
,,,,,,,,7,2020-12-22_15h56.46.254,premce3DEU_ses-02_part-02_label-phase2,2020.1.2,Win32,60,right,0.927,4,0.424,0,141,141,113,1,stimuli/objects/bluejay.jpg,right,new,274,,,,,,,,
,,,,,,,,7,2020-12-22_15h56.46.254,premce3DEU_ses-02_part-02_label-phase2,2020.1.2,Win32,60,right,0.625,4,0.239,0,142,142,28,1,stimuli/objects/car.jpg,left,old,189,,,,,,,,
,,,,,,,,7,2020-12-22_15h56.46.254,premce3DEU_ses-02_part-02_label-phase2,2020.1.2,Win32,60,left,1.678,2,0.116,0,143,143,141,1,stimuli/objects/gong.jpg,left,old,302,,,,,,,,
,,,,,,,,7,2020-12-22_15h56.46.254,premce3DEU_ses-02_part-02_label-phase2,2020.1.2,Win32,60,right,2.508,4,0.303,0,144,144,143,1,stimuli/objects/taxisign.jpg,right,new,304,,,,,,,,
,,,,,,,,7,2020-12-22_15h56.46.254,premce3DEU_ses-02_part-02_label-phase2,2020.1.2,Win32,60,right,1.79,1,0.74,0,145,145,95,1,stimuli/objects/sealion.jpg,right,new,256,,,,,,,,
,,,,,,,,7,2020-12-22_15h56.46.254,premce3DEU_ses-02_part-02_label-phase2,2020.1.2,Win32,60,right,0.946,4,0.071,0,146,146,23,1,stimuli/objects/graduationcap.jpg,right,new,184,,,,,,,,
,,,,,,,,7,2020-12-22_15h56.46.254,premce3DEU_ses-02_part-02_label-phase2,2020.1.2,Win32,60,right,1.041,4,0.151,0,147,147,76,1,stimuli/objects/statue.jpg,right,new,237,,,,,,,,
,,,,,,,,7,2020-12-22_15h56.46.254,premce3DEU_ses-02_part-02_label-phase2,2020.1.2,Win32,60,left,2.724,1,0.42,0,148,148,41,1,stimuli/objects/zebra.jpg,left,old,202,,,,,,,,
,,,,,,,,7,2020-12-22_15h56.46.254,premce3DEU_ses-02_part-02_label-phase2,2020.1.2,Win32,60,left,1.132,1,0.271,0,149,149,116,1,stimuli/objects/rollerblade.jpg,left,old,277,,,,,,,,
,,,,,,,,7,2020-12-22_15h56.46.254,premce3DEU_ses-02_part-02_label-phase2,2020.1.2,Win32,60,left,4.33,2,0.282,0,150,150,43,1,stimuli/objects/poolcue.jpg,right,new,204,,,,,,,,
,,,,,,,,7,2020-12-22_15h56.46.254,premce3DEU_ses-02_part-02_label-phase2,2020.1.2,Win32,60,right,1.425,1,2.333,0,151,151,5,1,stimuli/objects/wheelchair.jpg,left,old,166,,,,,,,,
,,,,,,,,7,2020-12-22_15h56.46.254,premce3DEU_ses-02_part-02_label-phase2,2020.1.2,Win32,60,right,0.976,4,0.249,0,152,152,66,1,stimuli/objects/tricornhat.jpg,right,new,227,,,,,,,,
,,,,,,,,7,2020-12-22_15h56.46.254,premce3DEU_ses-02_part-02_label-phase2,2020.1.2,Win32,60,right,0.677,4,0.256,0,153,153,20,1,stimuli/objects/toysoldier01b.jpg,right,new,181,,,,,,,,
,,,,,,,,7,2020-12-22_15h56.46.254,premce3DEU_ses-02_part-02_label-phase2,2020.1.2,Win32,60,left,1.6,4,0.153,0,154,154,100,1,stimuli/objects/doubledoors.jpg,left,old,261,,,,,,,,
,,,,,,,,7,2020-12-22_15h56.46.254,premce3DEU_ses-02_part-02_label-phase2,2020.1.2,Win32,60,left,1.155,4,0.304,0,155,155,151,1,stimuli/objects/jellyfish.jpg,left,old,312,,,,,,,,
,,,,,,,,7,2020-12-22_15h56.46.254,premce3DEU_ses-02_part-02_label-phase2,2020.1.2,Win32,60,left,0.724,4,0.221,0,156,156,77,1,stimuli/objects/electricguitar01.jpg,left,old,238,,,,,,,,
,,,,,,,,7,2020-12-22_15h56.46.254,premce3DEU_ses-02_part-02_label-phase2,2020.1.2,Win32,60,left,2.442,2,0.324,0,157,157,101,1,stimuli/objects/microphone01.jpg,right,new,262,,,,,,,,
,,,,,,,,7,2020-12-22_15h56.46.254,premce3DEU_ses-02_part-02_label-phase2,2020.1.2,Win32,60,right,1.125,4,0.388,0,158,158,138,1,stimuli/objects/ladybug03.jpg,right,new,299,,,,,,,,
,,,,,,,,7,2020-12-22_15h56.46.254,premce3DEU_ses-02_part-02_label-phase2,2020.1.2,Win32,60,left,1.001,4,0.144,0,159,159,72,1,stimuli/objects/doghouse.jpg,left,old,233,,,,,,,,
,,,,,,,,7,2020-12-22_15h56.46.254,premce3DEU_ses-02_part-02_label-phase2,2020.1.2,Win32,60,,,,,,,,,,,,,,space,33.892,0,0,0,1,1,ImagesforRecog2.csv
,,,,,,,,7,2020-12-22_15h56.46.254,premce3DEU_ses-02_part-02_label-phase2,2020.1.2,Win32,60,right,4.552,1,1.766,0,0,0,158,1,stimuli/objects/watercooler.jpg,right,new,159,,,,,,,,
,,,,,,,,7,2020-12-22_15h56.46.254,premce3DEU_ses-02_part-02_label-phase2,2020.1.2,Win32,60,left,1.127,1,1.367,0,1,1,25,1,stimuli/objects/honeycomb.jpg,right,new,26,,,,,,,,
,,,,,,,,7,2020-12-22_15h56.46.254,premce3DEU_ses-02_part-02_label-phase2,2020.1.2,Win32,60,right,0.611,3,1.251,0,2,2,96,1,stimuli/objects/awning.jpg,right,new,97,,,,,,,,
,,,,,,,,7,2020-12-22_15h56.46.254,premce3DEU_ses-02_part-02_label-phase2,2020.1.2,Win32,60,right,1.232,3,1.201,0,3,3,13,1,stimuli/objects/tower.jpg,right,new,14,,,,,,,,
,,,,,,,,7,2020-12-22_15h56.46.254,premce3DEU_ses-02_part-02_label-phase2,2020.1.2,Win32,60,left,1.439,2,0.009,0,4,4,26,1,stimuli/objects/sledgehammer.jpg,right,new,27,,,,,,,,
,,,,,,,,7,2020-12-22_15h56.46.254,premce3DEU_ses-02_part-02_label-phase2,2020.1.2,Win32,60,right,1.341,4,0.117,0,5,5,138,1,stimuli/objects/cow.jpg,right,new,139,,,,,,,,
,,,,,,,,7,2020-12-22_15h56.46.254,premce3DEU_ses-02_part-02_label-phase2,2020.1.2,Win32,60,left,3.797,2,0.222,0,6,6,60,1,stimuli/objects/banjo.jpg,right,new,61,,,,,,,,
,,,,,,,,7,2020-12-22_15h56.46.254,premce3DEU_ses-02_part-02_label-phase2,2020.1.2,Win32,60,right,0.707,4,1.525,0,7,7,27,1,stimuli/objects/coffeemaker.jpg,left,old,28,,,,,,,,
,,,,,,,,7,2020-12-22_15h56.46.254,premce3DEU_ses-02_part-02_label-phase2,2020.1.2,Win32,60,left,0.871,4,0.065,0,8,8,37,1,stimuli/objects/golfball.jpg,left,old,38,,,,,,,,
,,,,,,,,7,2020-12-22_15h56.46.254,premce3DEU_ses-02_part-02_label-phase2,2020.1.2,Win32,60,left,1.529,1,0.585,0,9,9,86,1,stimuli/objects/chimney.jpg,right,new,87,,,,,,,,
,,,,,,,,7,2020-12-22_15h56.46.254,premce3DEU_ses-02_part-02_label-phase2,2020.1.2,Win32,60,right,0.8,4,0.108,0,10,10,55,1,stimuli/objects/drumstick.jpg,right,new,56,,,,,,,,
,,,,,,,,7,2020-12-22_15h56.46.254,premce3DEU_ses-02_part-02_label-phase2,2020.1.2,Win32,60,right,1.868,4,0.206,0,11,11,72,1,stimuli/objects/totempole.jpg,right,new,73,,,,,,,,
,,,,,,,,7,2020-12-22_15h56.46.254,premce3DEU_ses-02_part-02_label-phase2,2020.1.2,Win32,60,right,2.112,4,0.176,0,12,12,84,1,stimuli/objects/winniethepooh.jpg,left,old,85,,,,,,,,
,,,,,,,,7,2020-12-22_15h56.46.254,premce3DEU_ses-02_part-02_label-phase2,2020.1.2,Win32,60,left,1.724,4,0.134,0,13,13,122,1,stimuli/objects/soccerball.jpg,left,old,123,,,,,,,,
,,,,,,,,7,2020-12-22_15h56.46.254,premce3DEU_ses-02_part-02_label-phase2,2020.1.2,Win32,60,right,1.06,4,0.219,0,14,14,155,1,stimuli/objects/calendar.jpg,right,new,156,,,,,,,,
,,,,,,,,7,2020-12-22_15h56.46.254,premce3DEU_ses-02_part-02_label-phase2,2020.1.2,Win32,60,right,1.4,4,0.178,0,15,15,124,1,stimuli/objects/handheldtelescope.jpg,left,old,125,,,,,,,,
,,,,,,,,7,2020-12-22_15h56.46.254,premce3DEU_ses-02_part-02_label-phase2,2020.1.2,Win32,60,right,2.164,3,0.571,0,16,16,117,1,stimuli/objects/bull.jpg,right,new,118,,,,,,,,
,,,,,,,,7,2020-12-22_15h56.46.254,premce3DEU_ses-02_part-02_label-phase2,2020.1.2,Win32,60,left,1.311,3,0.334,0,17,17,116,1,stimuli/objects/toucan.jpg,right,new,117,,,,,,,,
,,,,,,,,7,2020-12-22_15h56.46.254,premce3DEU_ses-02_part-02_label-phase2,2020.1.2,Win32,60,right,0.724,3,0.223,0,18,18,136,1,stimuli/objects/wheat.jpg,right,new,137,,,,,,,,
,,,,,,,,7,2020-12-22_15h56.46.254,premce3DEU_ses-02_part-02_label-phase2,2020.1.2,Win32,60,right,0.865,4,0.133,0,19,19,141,1,stimuli/objects/stroller.jpg,right,new,142,,,,,,,,
,,,,,,,,7,2020-12-22_15h56.46.254,premce3DEU_ses-02_part-02_label-phase2,2020.1.2,Win32,60,left,2.622,1,0.49,0,20,20,48,1,stimuli/objects/bowlingpin.jpg,left,old,49,,,,,,,,
,,,,,,,,7,2020-12-22_15h56.46.254,premce3DEU_ses-02_part-02_label-phase2,2020.1.2,Win32,60,right,3.696,2,2.303,0,21,21,130,1,stimuli/objects/tulip02.jpg,left,old,131,,,,,,,,
,,,,,,,,7,2020-12-22_15h56.46.254,premce3DEU_ses-02_part-02_label-phase2,2020.1.2,Win32,60,right,3.366,1,0.684,0,22,22,156,1,stimuli/objects/skateboard.jpg,left,old,157,,,,,,,,
,,,,,,,,7,2020-12-22_15h56.46.254,premce3DEU_ses-02_part-02_label-phase2,2020.1.2,Win32,60,right,1.459,4,0.118,0,23,23,111,1,stimuli/objects/platypus.jpg,right,new,112,,,,,,,,
,,,,,,,,7,2020-12-22_15h56.46.254,premce3DEU_ses-02_part-02_label-phase2,2020.1.2,Win32,60,right,3.489,1,0.217,0,24,24,135,1,stimuli/objects/basketball01.jpg,left,old,136,,,,,,,,
,,,,,,,,7,2020-12-22_15h56.46.254,premce3DEU_ses-02_part-02_label-phase2,2020.1.2,Win32,60,left,1.739,2,0.299,0,25,25,79,1,stimuli/objects/callbell.jpg,left,old,80,,,,,,,,
,,,,,,,,7,2020-12-22_15h56.46.254,premce3DEU_ses-02_part-02_label-phase2,2020.1.2,Win32,60,right,0.845,3,0.939,0,26,26,22,1,stimuli/objects/paperairplane.jpg,right,new,23,,,,,,,,
,,,,,,,,7,2020-12-22_15h56.46.254,premce3DEU_ses-02_part-02_label-phase2,2020.1.2,Win32,60,right,3.758,1,0.451,0,27,27,46,1,stimuli/objects/entrancegate.jpg,right,new,47,,,,,,,,
,,,,,,,,7,2020-12-22_15h56.46.254,premce3DEU_ses-02_part-02_label-phase2,2020.1.2,Win32,60,left,1.456,2,0.885,0,28,28,24,1,stimuli/objects/icecube02.jpg,right,new,25,,,,,,,,
,,,,,,,,7,2020-12-22_15h56.46.254,premce3DEU_ses-02_part-02_label-phase2,2020.1.2,Win32,60,right,0.875,4,0.2,0,29,29,102,1,stimuli/objects/forklift.jpg,left,old,103,,,,,,,,
,,,,,,,,7,2020-12-22_15h56.46.254,premce3DEU_ses-02_part-02_label-phase2,2020.1.2,Win32,60,left,1.159,4,0.127,0,30,30,114,1,stimuli/objects/star.jpg,left,old,115,,,,,,,,
,,,,,,,,7,2020-12-22_15h56.46.254,premce3DEU_ses-02_part-02_label-phase2,2020.1.2,Win32,60,right,0.826,4,0.251,0,31,31,109,1,stimuli/objects/webcam.jpg,right,new,110,,,,,,,,
,,,,,,,,7,2020-12-22_15h56.46.254,premce3DEU_ses-02_part-02_label-phase2,2020.1.2,Win32,60,left,1.445,2,0.316,0,32,32,15,1,stimuli/objects/dromedary.jpg,left,old,16,,,,,,,,
,,,,,,,,7,2020-12-22_15h56.46.254,premce3DEU_ses-02_part-02_label-phase2,2020.1.2,Win32,60,right,0.848,4,0.1,0,33,33,73,1,stimuli/objects/guitarcase.jpg,right,new,74,,,,,,,,
,,,,,,,,7,2020-12-22_15h56.46.254,premce3DEU_ses-02_part-02_label-phase2,2020.1.2,Win32,60,right,0.907,4,0.07,0,34,34,45,1,stimuli/objects/fridge.jpg,left,old,46,,,,,,,,
,,,,,,,,7,2020-12-22_15h56.46.254,premce3DEU_ses-02_part-02_label-phase2,2020.1.2,Win32,60,left,0.926,4,0.08,0,35,35,28,1,stimuli/objects/seaturtle.jpg,left,old,29,,,,,,,,
,,,,,,,,7,2020-12-22_15h56.46.254,premce3DEU_ses-02_part-02_label-phase2,2020.1.2,Win32,60,right,0.734,4,0.285,0,36,36,3,1,stimuli/objects/vacuumcleaner01.jpg,left,old,4,,,,,,,,
,,,,,,,,7,2020-12-22_15h56.46.254,premce3DEU_ses-02_part-02_label-phase2,2020.1.2,Win32,60,right,1.899,4,0.174,0,37,37,108,1,stimuli/objects/communitymailbox.jpg,left,old,109,,,,,,,,
,,,,,,,,7,2020-12-22_15h56.46.254,premce3DEU_ses-02_part-02_label-phase2,2020.1.2,Win32,60,left,1.002,4,0.088,0,38,38,91,1,stimuli/objects/eyepatch.jpg,left,old,92,,,,,,,,
,,,,,,,,7,2020-12-22_15h56.46.254,premce3DEU_ses-02_part-02_label-phase2,2020.1.2,Win32,60,right,0.712,3,0.184,0,39,39,1,1,stimuli/objects/pooltable.jpg,right,new,2,,,,,,,,
,,,,,,,,7,2020-12-22_15h56.46.254,premce3DEU_ses-02_part-02_label-phase2,2020.1.2,Win32,60,right,0.788,4,0.009,0,40,40,17,1,stimuli/objects/parkingmeter.jpg,right,new,18,,,,,,,,
,,,,,,,,7,2020-12-22_15h56.46.254,premce3DEU_ses-02_part-02_label-phase2,2020.1.2,Win32,60,left,1.124,4,0.129,0,41,41,77,1,stimuli/objects/fishskeleton.jpg,left,old,78,,,,,,,,
,,,,,,,,7,2020-12-22_15h56.46.254,premce3DEU_ses-02_part-02_label-phase2,2020.1.2,Win32,60,left,0.69,4,0.141,0,42,42,78,1,stimuli/objects/monarchbutterfly.jpg,left,old,79,,,,,,,,
,,,,,,,,7,2020-12-22_15h56.46.254,premce3DEU_ses-02_part-02_label-phase2,2020.1.2,Win32,60,left,0.808,4,0.199,0,43,43,36,1,stimuli/objects/christmaslights.jpg,left,old,37,,,,,,,,
,,,,,,,,7,2020-12-22_15h56.46.254,premce3DEU_ses-02_part-02_label-phase2,2020.1.2,Win32,60,left,1.907,2,0.339,0,44,44,54,1,stimuli/objects/toynutcracker.jpg,right,new,55,,,,,,,,
,,,,,,,,7,2020-12-22_15h56.46.254,premce3DEU_ses-02_part-02_label-phase2,2020.1.2,Win32,60,right,0.972,2,0.3,0,45,45,56,1,stimuli/objects/jeans01.jpg,left,old,57,,,,,,,,
,,,,,,,,7,2020-12-22_15h56.46.254,premce3DEU_ses-02_part-02_label-phase2,2020.1.2,Win32,60,left,0.741,4,0.021,0,46,46,29,1,stimuli/objects/snowman.jpg,left,old,30,,,,,,,,
,,,,,,,,7,2020-12-22_15h56.46.254,premce3DEU_ses-02_part-02_label-phase2,2020.1.2,Win32,60,right,1.866,2,0.235,0,47,47,12,1,stimuli/objects/pigeon.jpg,right,new,13,,,,,,,,
,,,,,,,,7,2020-12-22_15h56.46.254,premce3DEU_ses-02_part-02_label-phase2,2020.1.2,Win32,60,right,0.64,4,0.049,0,48,48,129,1,stimuli/objects/lawnmower.jpg,right,new,130,,,,,,,,
,,,,,,,,7,2020-12-22_15h56.46.254,premce3DEU_ses-02_part-02_label-phase2,2020.1.2,Win32,60,right,1.84,4,0.067,0,49,49,125,1,stimuli/objects/freezer02.jpg,right,new,126,,,,,,,,
,,,,,,,,7,2020-12-22_15h56.46.254,premce3DEU_ses-02_part-02_label-phase2,2020.1.2,Win32,60,left,0.906,4,0.144,0,50,50,152,1,stimuli/objects/urinal.jpg,left,old,153,,,,,,,,
,,,,,,,,7,2020-12-22_15h56.46.254,premce3DEU_ses-02_part-02_label-phase2,2020.1.2,Win32,60,left,0.756,4,0.02,0,51,51,82,1,stimuli/objects/crown.jpg,left,old,83,,,,,,,,
,,,,,,,,7,2020-12-22_15h56.46.254,premce3DEU_ses-02_part-02_label-phase2,2020.1.2,Win32,60,right,1.432,2,0.31,0,52,52,38,1,stimuli/objects/pig.jpg,right,new,39,,,,,,,,
,,,,,,,,7,2020-12-22_15h56.46.254,premce3DEU_ses-02_part-02_label-phase2,2020.1.2,Win32,60,right,1.006,3,0.105,0,53,53,118,1,stimuli/objects/microwave.jpg,left,old,119,,,,,,,,
,,,,,,,,7,2020-12-22_15h56.46.254,premce3DEU_ses-02_part-02_label-phase2,2020.1.2,Win32,60,left,0.808,4,0.002,0,54,54,16,1,stimuli/objects/cactus.jpg,left,old,17,,,,,,,,
,,,,,,,,7,2020-12-22_15h56.46.254,premce3DEU_ses-02_part-02_label-phase2,2020.1.2,Win32,60,left,3.947,4,0.036,0,55,55,9,1,stimuli/objects/rose.jpg,right,new,10,,,,,,,,
,,,,,,,,7,2020-12-22_15h56.46.254,premce3DEU_ses-02_part-02_label-phase2,2020.1.2,Win32,60,left,1.345,4,0.675,0,56,56,44,1,stimuli/objects/artichoke01b.jpg,left,old,45,,,,,,,,
,,,,,,,,7,2020-12-22_15h56.46.254,premce3DEU_ses-02_part-02_label-phase2,2020.1.2,Win32,60,right,0.683,3,1.167,0,57,57,20,1,stimuli/objects/accordion01.jpg,right,new,21,,,,,,,,
,,,,,,,,7,2020-12-22_15h56.46.254,premce3DEU_ses-02_part-02_label-phase2,2020.1.2,Win32,60,right,0.767,3,0.205,0,58,58,4,1,stimuli/objects/skipole.jpg,right,new,5,,,,,,,,
,,,,,,,,7,2020-12-22_15h56.46.254,premce3DEU_ses-02_part-02_label-phase2,2020.1.2,Win32,60,left,1.557,4,0.31,0,59,59,140,1,stimuli/objects/exitsign.jpg,left,old,141,,,,,,,,
,,,,,,,,7,2020-12-22_15h56.46.254,premce3DEU_ses-02_part-02_label-phase2,2020.1.2,Win32,60,right,0.697,4,1.262,0,60,60,101,1,stimuli/objects/apron.jpg,left,old,102,,,,,,,,
,,,,,,,,7,2020-12-22_15h56.46.254,premce3DEU_ses-02_part-02_label-phase2,2020.1.2,Win32,60,right,0.713,4,0.084,0,61,61,154,1,stimuli/objects/curtain.jpg,right,new,155,,,,,,,,
,,,,,,,,7,2020-12-22_15h56.46.254,premce3DEU_ses-02_part-02_label-phase2,2020.1.2,Win32,60,right,1.047,2,0.458,0,62,62,18,1,stimuli/objects/pingpongtable.jpg,right,new,19,,,,,,,,
,,,,,,,,7,2020-12-22_15h56.46.254,premce3DEU_ses-02_part-02_label-phase2,2020.1.2,Win32,60,right,1.726,3,0.747,0,63,63,5,1,stimuli/objects/horse.jpg,left,old,6,,,,,,,,
,,,,,,,,7,2020-12-22_15h56.46.254,premce3DEU_ses-02_part-02_label-phase2,2020.1.2,Win32,60,left,2.608,1,0.3,0,64,64,67,1,stimuli/objects/volleyball.jpg,left,old,68,,,,,,,,
,,,,,,,,7,2020-12-22_15h56.46.254,premce3DEU_ses-02_part-02_label-phase2,2020.1.2,Win32,60,right,1.44,4,0.816,0,65,65,146,1,stimuli/objects/ant.jpg,right,new,147,,,,,,,,
,,,,,,,,7,2020-12-22_15h56.46.254,premce3DEU_ses-02_part-02_label-phase2,2020.1.2,Win32,60,right,0.759,4,0.071,0,66,66,51,1,stimuli/objects/road02.jpg,right,new,52,,,,,,,,
,,,,,,,,7,2020-12-22_15h56.46.254,premce3DEU_ses-02_part-02_label-phase2,2020.1.2,Win32,60,left,2.042,3,0.3,0,67,67,83,1,stimuli/objects/flugglehorn.jpg,right,new,84,,,,,,,,
,,,,,,,,7,2020-12-22_15h56.46.254,premce3DEU_ses-02_part-02_label-phase2,2020.1.2,Win32,60,left,1.274,4,0.55,0,68,68,53,1,stimuli/objects/honeybee.jpg,right,new,54,,,,,,,,
,,,,,,,,7,2020-12-22_15h56.46.254,premce3DEU_ses-02_part-02_label-phase2,2020.1.2,Win32,60,right,0.986,3,0.538,0,69,69,64,1,stimuli/objects/dalmatian.jpg,left,old,65,,,,,,,,
,,,,,,,,7,2020-12-22_15h56.46.254,premce3DEU_ses-02_part-02_label-phase2,2020.1.2,Win32,60,right,0.661,3,0.258,0,70,70,2,1,stimuli/objects/table01.jpg,left,old,3,,,,,,,,
,,,,,,,,7,2020-12-22_15h56.46.254,premce3DEU_ses-02_part-02_label-phase2,2020.1.2,Win32,60,right,0.871,3,0.099,0,71,71,149,1,stimuli/objects/dolly01.jpg,right,new,150,,,,,,,,
,,,,,,,,7,2020-12-22_15h56.46.254,premce3DEU_ses-02_part-02_label-phase2,2020.1.2,Win32,60,left,1.379,4,0.247,0,72,72,65,1,stimuli/objects/weddingcake.jpg,left,old,66,,,,,,,,
,,,,,,,,7,2020-12-22_15h56.46.254,premce3DEU_ses-02_part-02_label-phase2,2020.1.2,Win32,60,right,1.519,1,1.535,0,73,73,50,1,stimuli/objects/lionstatue.jpg,left,old,51,,,,,,,,
,,,,,,,,7,2020-12-22_15h56.46.254,premce3DEU_ses-02_part-02_label-phase2,2020.1.2,Win32,60,left,3.023,1,0.771,0,74,74,133,1,stimuli/objects/sink.jpg,right,new,134,,,,,,,,
,,,,,,,,7,2020-12-22_15h56.46.254,premce3DEU_ses-02_part-02_label-phase2,2020.1.2,Win32,60,right,1.622,1,0.309,0,75,75,139,1,stimuli/objects/safe.jpg,right,new,140,,,,,,,,
,,,,,,,,7,2020-12-22_15h56.46.254,premce3DEU_ses-02_part-02_label-phase2,2020.1.2,Win32,60,right,1.13,1,0.254,0,76,76,143,1,stimuli/objects/faucet.jpg,right,new,144,,,,,,,,
,,,,,,,,7,2020-12-22_15h56.46.254,premce3DEU_ses-02_part-02_label-phase2,2020.1.2,Win32,60,left,2.538,4,0.448,0,77,77,88,1,stimuli/objects/jackrabbit.jpg,left,old,89,,,,,,,,
,,,,,,,,7,2020-12-22_15h56.46.254,premce3DEU_ses-02_part-02_label-phase2,2020.1.2,Win32,60,right,0.807,4,0.273,0,78,78,153,1,stimuli/objects/coffeemachine.jpg,left,old,154,,,,,,,,
,,,,,,,,7,2020-12-22_15h56.46.254,premce3DEU_ses-02_part-02_label-phase2,2020.1.2,Win32,60,left,0.843,4,0.119,0,79,79,68,1,stimuli/objects/cuttlefish.jpg,left,old,69,,,,,,,,
,,,,,,,,7,2020-12-22_15h56.46.254,premce3DEU_ses-02_part-02_label-phase2,2020.1.2,Win32,60,right,0.719,3,0.414,0,80,80,90,1,stimuli/objects/trailer.jpg,right,new,91,,,,,,,,
,,,,,,,,7,2020-12-22_15h56.46.254,premce3DEU_ses-02_part-02_label-phase2,2020.1.2,Win32,60,right,1.541,3,0.166,0,81,81,8,1,stimuli/objects/englishcucumber.jpg,right,new,9,,,,,,,,
,,,,,,,,7,2020-12-22_15h56.46.254,premce3DEU_ses-02_part-02_label-phase2,2020.1.2,Win32,60,left,0.863,1,0.767,0,82,82,14,1,stimuli/objects/canoepaddle02.jpg,left,old,15,,,,,,,,
,,,,,,,,7,2020-12-22_15h56.46.254,premce3DEU_ses-02_part-02_label-phase2,2020.1.2,Win32,60,right,0.794,4,0.765,0,83,83,74,1,stimuli/objects/windturbine.jpg,left,old,75,,,,,,,,
,,,,,,,,7,2020-12-22_15h56.46.254,premce3DEU_ses-02_part-02_label-phase2,2020.1.2,Win32,60,right,0.785,4,0.189,0,84,84,11,1,stimuli/objects/cannon.jpg,left,old,12,,,,,,,,
,,,,,,,,7,2020-12-22_15h56.46.254,premce3DEU_ses-02_part-02_label-phase2,2020.1.2,Win32,60,right,0.899,4,0.223,0,85,85,131,1,stimuli/objects/missile.jpg,right,new,132,,,,,,,,
,,,,,,,,7,2020-12-22_15h56.46.254,premce3DEU_ses-02_part-02_label-phase2,2020.1.2,Win32,60,right,2.083,2,0.253,0,86,86,142,1,stimuli/objects/giraffe.jpg,left,old,143,,,,,,,,
,,,,,,,,7,2020-12-22_15h56.46.254,premce3DEU_ses-02_part-02_label-phase2,2020.1.2,Win32,60,right,1.087,3,0.209,0,87,87,35,1,stimuli/objects/skihelmet01.jpg,left,old,36,,,,,,,,
,,,,,,,,7,2020-12-22_15h56.46.254,premce3DEU_ses-02_part-02_label-phase2,2020.1.2,Win32,60,right,0.808,4,0.184,0,88,88,106,1,stimuli/objects/helicopter.jpg,right,new,107,,,,,,,,
,,,,,,,,7,2020-12-22_15h56.46.254,premce3DEU_ses-02_part-02_label-phase2,2020.1.2,Win32,60,right,1.937,3,0.103,0,89,89,0,1,stimuli/objects/treestump.jpg,left,old,1,,,,,,,,
,,,,,,,,7,2020-12-22_15h56.46.254,premce3DEU_ses-02_part-02_label-phase2,2020.1.2,Win32,60,right,0.911,4,0.082,0,90,90,66,1,stimuli/objects/shipinabottle.jpg,right,new,67,,,,,,,,
,,,,,,,,7,2020-12-22_15h56.46.254,premce3DEU_ses-02_part-02_label-phase2,2020.1.2,Win32,60,right,1.303,3,0.096,0,91,91,157,1,stimuli/objects/cookingpot.jpg,left,old,158,,,,,,,,
,,,,,,,,7,2020-12-22_15h56.46.254,premce3DEU_ses-02_part-02_label-phase2,2020.1.2,Win32,60,right,1.327,3,0.218,0,92,92,87,1,stimuli/objects/filingcabinet.jpg,left,old,88,,,,,,,,
,,,,,,,,7,2020-12-22_15h56.46.254,premce3DEU_ses-02_part-02_label-phase2,2020.1.2,Win32,60,right,5.895,3,0.124,0,93,93,148,1,stimuli/objects/peacock.jpg,right,new,149,,,,,,,,
,,,,,,,,7,2020-12-22_15h56.46.254,premce3DEU_ses-02_part-02_label-phase2,2020.1.2,Win32,60,left,1.628,2,0.351,0,94,94,61,1,stimuli/objects/jokercard.jpg,left,old,62,,,,,,,,
,,,,,,,,7,2020-12-22_15h56.46.254,premce3DEU_ses-02_part-02_label-phase2,2020.1.2,Win32,60,right,0.705,3,0.53,0,95,95,113,1,stimuli/objects/shoppingcart.jpg,right,new,114,,,,,,,,
,,,,,,,,7,2020-12-22_15h56.46.254,premce3DEU_ses-02_part-02_label-phase2,2020.1.2,Win32,60,right,2.05,4,0.549,0,96,96,95,1,stimuli/objects/scalpel.jpg,left,old,96,,,,,,,,
,,,,,,,,7,2020-12-22_15h56.46.254,premce3DEU_ses-02_part-02_label-phase2,2020.1.2,Win32,60,left,1.404,2,0.434,0,97,97,69,1,stimuli/objects/granolabar01.jpg,left,old,70,,,,,,,,
,,,,,,,,7,2020-12-22_15h56.46.254,premce3DEU_ses-02_part-02_label-phase2,2020.1.2,Win32,60,right,0.855,4,0.163,0,98,98,59,1,stimuli/objects/birdhouse.jpg,right,new,60,,,,,,,,
,,,,,,,,7,2020-12-22_15h56.46.254,premce3DEU_ses-02_part-02_label-phase2,2020.1.2,Win32,60,right,5.953,1,0.483,0,99,99,43,1,stimuli/objects/ostrich.jpg,right,new,44,,,,,,,,
,,,,,,,,7,2020-12-22_15h56.46.254,premce3DEU_ses-02_part-02_label-phase2,2020.1.2,Win32,60,right,1.75,2,0.164,0,100,100,123,1,stimuli/objects/lintroller.jpg,left,old,124,,,,,,,,
,,,,,,,,7,2020-12-22_15h56.46.254,premce3DEU_ses-02_part-02_label-phase2,2020.1.2,Win32,60,right,0.777,4,0.234,0,101,101,159,1,stimuli/objects/stairs.jpg,right,new,160,,,,,,,,
,,,,,,,,7,2020-12-22_15h56.46.254,premce3DEU_ses-02_part-02_label-phase2,2020.1.2,Win32,60,right,1.429,4,0.001,0,102,102,80,1,stimuli/objects/tree.jpg,right,new,81,,,,,,,,
,,,,,,,,7,2020-12-22_15h56.46.254,premce3DEU_ses-02_part-02_label-phase2,2020.1.2,Win32,60,right,0.839,4,0.517,0,103,103,39,1,stimuli/objects/electrictoothbrush01c.jpg,right,new,40,,,,,,,,
,,,,,,,,7,2020-12-22_15h56.46.254,premce3DEU_ses-02_part-02_label-phase2,2020.1.2,Win32,60,right,3.476,4,0.364,0,104,104,32,1,stimuli/objects/moth.jpg,right,new,33,,,,,,,,
,,,,,,,,7,2020-12-22_15h56.46.254,premce3DEU_ses-02_part-02_label-phase2,2020.1.2,Win32,60,right,0.649,4,0.053,0,105,105,41,1,stimuli/objects/faxmachine.jpg,right,new,42,,,,,,,,
,,,,,,,,7,2020-12-22_15h56.46.254,premce3DEU_ses-02_part-02_label-phase2,2020.1.2,Win32,60,right,1.306,4,0.3,0,106,106,76,1,stimuli/objects/morningstar.jpg,right,new,77,,,,,,,,
,,,,,,,,7,2020-12-22_15h56.46.254,premce3DEU_ses-02_part-02_label-phase2,2020.1.2,Win32,60,left,0.855,4,0.44,0,107,107,97,1,stimuli/objects/dreamcatcher.jpg,left,old,98,,,,,,,,
,,,,,,,,7,2020-12-22_15h56.46.254,premce3DEU_ses-02_part-02_label-phase2,2020.1.2,Win32,60,right,0.687,4,0.063,0,108,108,71,1,stimuli/objects/bed.jpg,right,new,72,,,,,,,,
,,,,,,,,7,2020-12-22_15h56.46.254,premce3DEU_ses-02_part-02_label-phase2,2020.1.2,Win32,60,right,0.705,3,0.246,0,109,109,81,1,stimuli/objects/lighthouse.jpg,right,new,82,,,,,,,,
,,,,,,,,7,2020-12-22_15h56.46.254,premce3DEU_ses-02_part-02_label-phase2,2020.1.2,Win32,60,right,0.81,4,0.067,0,110,110,49,1,stimuli/objects/triangle.jpg,left,old,50,,,,,,,,
,,,,,,,,7,2020-12-22_15h56.46.254,premce3DEU_ses-02_part-02_label-phase2,2020.1.2,Win32,60,right,2.11,2,0.667,0,111,111,145,1,stimuli/objects/church.jpg,right,new,146,,,,,,,,
,,,,,,,,7,2020-12-22_15h56.46.254,premce3DEU_ses-02_part-02_label-phase2,2020.1.2,Win32,60,right,0.748,4,0.4,0,112,112,132,1,stimuli/objects/shower.jpg,left,old,133,,,,,,,,
,,,,,,,,7,2020-12-22_15h56.46.254,premce3DEU_ses-02_part-02_label-phase2,2020.1.2,Win32,60,right,1.639,4,0.051,0,113,113,150,1,stimuli/objects/eiffeltower.jpg,right,new,151,,,,,,,,
,,,,,,,,7,2020-12-22_15h56.46.254,premce3DEU_ses-02_part-02_label-phase2,2020.1.2,Win32,60,right,0.711,4,0.149,0,114,114,63,1,stimuli/objects/toasteroven.jpg,right,new,64,,,,,,,,
,,,,,,,,7,2020-12-22_15h56.46.254,premce3DEU_ses-02_part-02_label-phase2,2020.1.2,Win32,60,right,1.787,4,0.149,0,115,115,115,1,stimuli/objects/lantern03.jpg,left,old,116,,,,,,,,
,,,,,,,,7,2020-12-22_15h56.46.254,premce3DEU_ses-02_part-02_label-phase2,2020.1.2,Win32,60,right,1.254,4,0.418,0,116,116,128,1,stimuli/objects/makiroll.jpg,right,new,129,,,,,,,,
,,,,,,,,7,2020-12-22_15h56.46.254,premce3DEU_ses-02_part-02_label-phase2,2020.1.2,Win32,60,right,1.234,4,0.234,0,117,117,7,1,stimuli/objects/redonion.jpg,left,old,8,,,,,,,,
,,,,,,,,7,2020-12-22_15h56.46.254,premce3DEU_ses-02_part-02_label-phase2,2020.1.2,Win32,60,right,0.605,3,0.248,0,118,118,47,1,stimuli/objects/stepladder.jpg,left,old,48,,,,,,,,
,,,,,,,,7,2020-12-22_15h56.46.254,premce3DEU_ses-02_part-02_label-phase2,2020.1.2,Win32,60,right,0.822,2,1.066,0,119,119,75,1,stimuli/objects/barn.jpg,left,old,76,,,,,,,,
,,,,,,,,7,2020-12-22_15h56.46.254,premce3DEU_ses-02_part-02_label-phase2,2020.1.2,Win32,60,right,0.723,4,0.15,0,120,120,85,1,stimuli/objects/bridge.jpg,right,new,86,,,,,,,,
,,,,,,,,7,2020-12-22_15h56.46.254,premce3DEU_ses-02_part-02_label-phase2,2020.1.2,Win32,60,left,1.29,3,0.183,0,121,121,103,1,stimuli/objects/salmon.jpg,left,old,104,,,,,,,,
,,,,,,,,7,2020-12-22_15h56.46.254,premce3DEU_ses-02_part-02_label-phase2,2020.1.2,Win32,60,right,0.623,1,0.98,0,122,122,151,1,stimuli/objects/contactlens.jpg,left,old,152,,,,,,,,
,,,,,,,,7,2020-12-22_15h56.46.254,premce3DEU_ses-02_part-02_label-phase2,2020.1.2,Win32,60,right,0.738,4,0.181,0,123,123,107,1,stimuli/objects/musicstand.jpg,left,old,108,,,,,,,,
,,,,,,,,7,2020-12-22_15h56.46.254,premce3DEU_ses-02_part-02_label-phase2,2020.1.2,Win32,60,right,2.486,1,0.414,0,124,124,52,1,stimuli/objects/turkey.jpg,right,new,53,,,,,,,,
,,,,,,,,7,2020-12-22_15h56.46.254,premce3DEU_ses-02_part-02_label-phase2,2020.1.2,Win32,60,right,0.677,4,0.237,0,125,125,42,1,stimuli/objects/snowshoe.jpg,right,new,43,,,,,,,,
,,,,,,,,7,2020-12-22_15h56.46.254,premce3DEU_ses-02_part-02_label-phase2,2020.1.2,Win32,60,left,1.652,1,0.189,0,126,126,119,1,stimuli/objects/kite.jpg,right,new,120,,,,,,,,
,,,,,,,,7,2020-12-22_15h56.46.254,premce3DEU_ses-02_part-02_label-phase2,2020.1.2,Win32,60,left,1.339,2,0.085,0,127,127,30,1,stimuli/objects/fortunecookie.jpg,right,new,31,,,,,,,,
,,,,,,,,7,2020-12-22_15h56.46.254,premce3DEU_ses-02_part-02_label-phase2,2020.1.2,Win32,60,right,1.072,3,0.47,0,128,128,21,1,stimuli/objects/tire.jpg,right,new,22,,,,,,,,
,,,,,,,,7,2020-12-22_15h56.46.254,premce3DEU_ses-02_part-02_label-phase2,2020.1.2,Win32,60,right,0.639,3,0.679,0,129,129,98,1,stimuli/objects/handbrush02.jpg,left,old,99,,,,,,,,
,,,,,,,,7,2020-12-22_15h56.46.254,premce3DEU_ses-02_part-02_label-phase2,2020.1.2,Win32,60,right,0.925,2,0.419,0,130,130,104,1,stimuli/objects/porcupine.jpg,left,old,105,,,,,,,,
,,,,,,,,7,2020-12-22_15h56.46.254,premce3DEU_ses-02_part-02_label-phase2,2020.1.2,Win32,60,left,1.922,4,0.764,0,131,131,134,1,stimuli/objects/nunchuk.jpg,right,new,135,,,,,,,,
,,,,,,,,7,2020-12-22_15h56.46.254,premce3DEU_ses-02_part-02_label-phase2,2020.1.2,Win32,60,right,1.113,2,0.189,0,132,132,33,1,stimuli/objects/caribou02.jpg,right,new,34,,,,,,,,
,,,,,,,,7,2020-12-22_15h56.46.254,premce3DEU_ses-02_part-02_label-phase2,2020.1.2,Win32,60,left,1.671,3,0.122,0,133,133,31,1,stimuli/objects/file.jpg,left,old,32,,,,,,,,
,,,,,,,,7,2020-12-22_15h56.46.254,premce3DEU_ses-02_part-02_label-phase2,2020.1.2,Win32,60,left,1.161,2,0.197,0,134,134,127,1,stimuli/objects/sausage.jpg,left,old,128,,,,,,,,
,,,,,,,,7,2020-12-22_15h56.46.254,premce3DEU_ses-02_part-02_label-phase2,2020.1.2,Win32,60,left,0.74,4,0.161,0,135,135,6,1,stimuli/objects/pumpkin.jpg,left,old,7,,,,,,,,
,,,,,,,,7,2020-12-22_15h56.46.254,premce3DEU_ses-02_part-02_label-phase2,2020.1.2,Win32,60,right,0.652,4,0.468,0,136,136,70,1,stimuli/objects/balcony02.jpg,left,old,71,,,,,,,,
,,,,,,,,7,2020-12-22_15h56.46.254,premce3DEU_ses-02_part-02_label-phase2,2020.1.2,Win32,60,right,0.882,1,0.514,0,137,137,144,1,stimuli/objects/trombone.jpg,left,old,145,,,,,,,,
,,,,,,,,7,2020-12-22_15h56.46.254,premce3DEU_ses-02_part-02_label-phase2,2020.1.2,Win32,60,right,0.929,1,0.5,0,138,138,93,1,stimuli/objects/discoball.jpg,right,new,94,,,,,,,,
,,,,,,,,7,2020-12-22_15h56.46.254,premce3DEU_ses-02_part-02_label-phase2,2020.1.2,Win32,60,right,2.187,4,1.089,0,139,139,126,1,stimuli/objects/bat.jpg,right,new,127,,,,,,,,
,,,,,,,,7,2020-12-22_15h56.46.254,premce3DEU_ses-02_part-02_label-phase2,2020.1.2,Win32,60,right,1.169,4,0.116,0,140,140,34,1,stimuli/objects/aquarium.jpg,left,old,35,,,,,,,,
,,,,,,,,7,2020-12-22_15h56.46.254,premce3DEU_ses-02_part-02_label-phase2,2020.1.2,Win32,60,left,2.204,1,0.55,0,141,141,100,1,stimuli/objects/macaroni01.jpg,right,new,101,,,,,,,,
,,,,,,,,7,2020-12-22_15h56.46.254,premce3DEU_ses-02_part-02_label-phase2,2020.1.2,Win32,60,right,0.863,4,0.8,0,142,142,19,1,stimuli/objects/crosscountryski.jpg,right,new,20,,,,,,,,
,,,,,,,,7,2020-12-22_15h56.46.254,premce3DEU_ses-02_part-02_label-phase2,2020.1.2,Win32,60,right,2.245,3,0.498,0,143,143,62,1,stimuli/objects/trophy01.jpg,left,old,63,,,,,,,,
,,,,,,,,7,2020-12-22_15h56.46.254,premce3DEU_ses-02_part-02_label-phase2,2020.1.2,Win32,60,left,1.241,4,0.183,0,144,144,137,1,stimuli/objects/brownsugar.jpg,left,old,138,,,,,,,,
,,,,,,,,7,2020-12-22_15h56.46.254,premce3DEU_ses-02_part-02_label-phase2,2020.1.2,Win32,60,right,0.606,4,0.249,0,145,145,105,1,stimuli/objects/gps.jpg,left,old,106,,,,,,,,
,,,,,,,,7,2020-12-22_15h56.46.254,premce3DEU_ses-02_part-02_label-phase2,2020.1.2,Win32,60,right,2.428,3,0.237,0,146,146,92,1,stimuli/objects/armchair02.jpg,right,new,93,,,,,,,,
,,,,,,,,7,2020-12-22_15h56.46.254,premce3DEU_ses-02_part-02_label-phase2,2020.1.2,Win32,60,right,0.643,4,0.099,0,147,147,112,1,stimuli/objects/tank.jpg,right,new,113,,,,,,,,
,,,,,,,,7,2020-12-22_15h56.46.254,premce3DEU_ses-02_part-02_label-phase2,2020.1.2,Win32,60,right,1.405,4,0.335,0,148,148,94,1,stimuli/objects/dandelion.jpg,right,new,95,,,,,,,,
,,,,,,,,7,2020-12-22_15h56.46.254,premce3DEU_ses-02_part-02_label-phase2,2020.1.2,Win32,60,left,3.61,1,0.436,0,149,149,40,1,stimuli/objects/cremebrulee.jpg,left,old,41,,,,,,,,
,,,,,,,,7,2020-12-22_15h56.46.254,premce3DEU_ses-02_part-02_label-phase2,2020.1.2,Win32,60,right,0.611,3,0.899,0,150,150,10,1,stimuli/objects/tablesaw.jpg,right,new,11,,,,,,,,
,,,,,,,,7,2020-12-22_15h56.46.254,premce3DEU_ses-02_part-02_label-phase2,2020.1.2,Win32,60,right,0.767,2,1.283,0,151,151,99,1,stimuli/objects/waterfountain02.jpg,left,old,100,,,,,,,,
,,,,,,,,7,2020-12-22_15h56.46.254,premce3DEU_ses-02_part-02_label-phase2,2020.1.2,Win32,60,right,0.804,4,0.206,0,152,152,120,1,stimuli/objects/panda.jpg,left,old,121,,,,,,,,
,,,,,,,,7,2020-12-22_15h56.46.254,premce3DEU_ses-02_part-02_label-phase2,2020.1.2,Win32,60,right,0.742,4,0.156,0,153,153,23,1,stimuli/objects/lollipop04.jpg,right,new,24,,,,,,,,
,,,,,,,,7,2020-12-22_15h56.46.254,premce3DEU_ses-02_part-02_label-phase2,2020.1.2,Win32,60,right,2.135,1,0.282,0,154,154,121,1,stimuli/objects/riverotter.jpg,right,new,122,,,,,,,,
,,,,,,,,7,2020-12-22_15h56.46.254,premce3DEU_ses-02_part-02_label-phase2,2020.1.2,Win32,60,right,1.011,4,0.011,0,155,155,57,1,stimuli/objects/cupcake.jpg,right,new,58,,,,,,,,
,,,,,,,,7,2020-12-22_15h56.46.254,premce3DEU_ses-02_part-02_label-phase2,2020.1.2,Win32,60,right,1.989,1,0.014,0,156,156,110,1,stimuli/objects/foosballtable.jpg,right,new,111,,,,,,,,
,,,,,,,,7,2020-12-22_15h56.46.254,premce3DEU_ses-02_part-02_label-phase2,2020.1.2,Win32,60,right,2.554,1,0.684,0,157,157,89,1,stimuli/objects/bowlingball.jpg,right,new,90,,,,,,,,
,,,,,,,,7,2020-12-22_15h56.46.254,premce3DEU_ses-02_part-02_label-phase2,2020.1.2,Win32,60,right,0.773,1,0.43,0,158,158,58,1,stimuli/objects/beaver.jpg,left,old,59,,,,,,,,
,,,,,,,,7,2020-12-22_15h56.46.254,premce3DEU_ses-02_part-02_label-phase2,2020.1.2,Win32,60,right,0.672,1,0.299,0,159,159,147,1,stimuli/objects/toiletbrush.jpg,right,new,148,,,,,,,,
,,,,,,,,7,2020-12-22_15h56.46.254,premce3DEU_ses-02_part-02_label-phase2,2020.1.2,Win32,60,,,,,,,,,,,,,,space,3.545,0,1,1,0,1,ImagesforRecog1.csv
