instructions_loop.thisRepN,instructions_loop.thisTrialN,instructions_loop.thisN,instructions_loop.thisIndex,instructions_loop.ran,text1,text2,text3,participant,date,expName,psychopyVersion,OS,frameRate,recog_resp.keys,recog_resp.rt,conf_resp.keys,conf_resp.rt,recog_loop.thisRepN,recog_loop.thisTrialN,recog_loop.thisN,recog_loop.thisIndex,recog_loop.ran,images,corr_ans,type,order,key_resp_break.keys,key_resp_break.rt,list_loop.thisRepN,list_loop.thisTrialN,list_loop.thisN,list_loop.thisIndex,list_loop.ran,recog_list
0,0,0,0,1,Willkommen zum letzten Teil des Experiments!,,Mit der LEERTASTE kannst du mit der Aufgabe fortfahren.,9,2021-01-15_10h30.04.226,premce3DEU_ses-02_part-02_label-phase2,2020.1.2,Win32,60,,,,,,,,,,,,,,,,,,,,,
0,1,1,1,1,,"Jetzt werden wir dir einige Bilder zeigen.

Bitte gib zu jedem Bild an, ob du du es im Verlauf des Experiments gesehen hast.

Drücke die LINKE PFEILTASTE für JA
Drücke die RECHTE PFEILTASTE für NEIN

",Mit der LEERTASTE kannst du mit der Aufgabe fortfahren.,9,2021-01-15_10h30.04.226,premce3DEU_ses-02_part-02_label-phase2,2020.1.2,Win32,60,,,,,,,,,,,,,,,,,,,,,
0,2,2,2,1,,"Anschließend bitten wir dich anzugeben wie sicher du dir bei deiner Wahl bist.

Bitte nutze die Zifferntasten von 1 bis 4 am oberen Ende deiner Tastatur um anzugeben, wie sicher du dir bei deiner Antwort bist.

Die Zahlen stehen für

1 = Sehr unsicher
2 = Unsicher
3 = Sicher
4 = Sehr sicher",Mit der LEERTASTE kannst du mit der Aufgabe fortfahren.,9,2021-01-15_10h30.04.226,premce3DEU_ses-02_part-02_label-phase2,2020.1.2,Win32,60,,,,,,,,,,,,,,,,,,,,,
,,,,,,,,9,2021-01-15_10h30.04.226,premce3DEU_ses-02_part-02_label-phase2,2020.1.2,Win32,60,left,1.73542,4,0.975615,0,0,0,7,1,stimuli/objects/redonion.jpg,left,old,8,,,,,,,,
,,,,,,,,9,2021-01-15_10h30.04.226,premce3DEU_ses-02_part-02_label-phase2,2020.1.2,Win32,60,right,1.815175,2,0.74807,0,1,1,158,1,stimuli/objects/watercooler.jpg,right,new,159,,,,,,,,
,,,,,,,,9,2021-01-15_10h30.04.226,premce3DEU_ses-02_part-02_label-phase2,2020.1.2,Win32,60,right,1.538225,2,0.695015,0,2,2,117,1,stimuli/objects/bull.jpg,right,new,118,,,,,,,,
,,,,,,,,9,2021-01-15_10h30.04.226,premce3DEU_ses-02_part-02_label-phase2,2020.1.2,Win32,60,left,0.84866,4,0.308185,0,3,3,62,1,stimuli/objects/trophy01.jpg,left,old,63,,,,,,,,
,,,,,,,,9,2021-01-15_10h30.04.226,premce3DEU_ses-02_part-02_label-phase2,2020.1.2,Win32,60,left,0.731155,4,0.3317,0,4,4,6,1,stimuli/objects/pumpkin.jpg,left,old,7,,,,,,,,
,,,,,,,,9,2021-01-15_10h30.04.226,premce3DEU_ses-02_part-02_label-phase2,2020.1.2,Win32,60,left,0.695225,3,0.323895,0,5,5,27,1,stimuli/objects/coffeemaker.jpg,left,old,28,,,,,,,,
,,,,,,,,9,2021-01-15_10h30.04.226,premce3DEU_ses-02_part-02_label-phase2,2020.1.2,Win32,60,left,0.807645,2,0.498425,0,6,6,37,1,stimuli/objects/golfball.jpg,left,old,38,,,,,,,,
,,,,,,,,9,2021-01-15_10h30.04.226,premce3DEU_ses-02_part-02_label-phase2,2020.1.2,Win32,60,right,0.92683,1,0.504385,0,7,7,17,1,stimuli/objects/parkingmeter.jpg,right,new,18,,,,,,,,
,,,,,,,,9,2021-01-15_10h30.04.226,premce3DEU_ses-02_part-02_label-phase2,2020.1.2,Win32,60,right,1.15045,3,0.536575,0,8,8,154,1,stimuli/objects/curtain.jpg,right,new,155,,,,,,,,
,,,,,,,,9,2021-01-15_10h30.04.226,premce3DEU_ses-02_part-02_label-phase2,2020.1.2,Win32,60,left,0.964335,3,0.400355,0,9,9,95,1,stimuli/objects/scalpel.jpg,left,old,96,,,,,,,,
,,,,,,,,9,2021-01-15_10h30.04.226,premce3DEU_ses-02_part-02_label-phase2,2020.1.2,Win32,60,right,0.932425,2,0.31758,0,10,10,148,1,stimuli/objects/peacock.jpg,right,new,149,,,,,,,,
,,,,,,,,9,2021-01-15_10h30.04.226,premce3DEU_ses-02_part-02_label-phase2,2020.1.2,Win32,60,left,1.044585,2,0.366205,0,11,11,31,1,stimuli/objects/file.jpg,left,old,32,,,,,,,,
,,,,,,,,9,2021-01-15_10h30.04.226,premce3DEU_ses-02_part-02_label-phase2,2020.1.2,Win32,60,left,0.722225,4,0.37742,0,12,12,135,1,stimuli/objects/basketball01.jpg,left,old,136,,,,,,,,
,,,,,,,,9,2021-01-15_10h30.04.226,premce3DEU_ses-02_part-02_label-phase2,2020.1.2,Win32,60,left,0.69856,4,0.17842,0,13,13,98,1,stimuli/objects/handbrush02.jpg,left,old,99,,,,,,,,
,,,,,,,,9,2021-01-15_10h30.04.226,premce3DEU_ses-02_part-02_label-phase2,2020.1.2,Win32,60,right,0.925835,3,0.51944,0,14,14,66,1,stimuli/objects/shipinabottle.jpg,right,new,67,,,,,,,,
,,,,,,,,9,2021-01-15_10h30.04.226,premce3DEU_ses-02_part-02_label-phase2,2020.1.2,Win32,60,left,0.845705,3,0.32771,0,15,15,49,1,stimuli/objects/triangle.jpg,left,old,50,,,,,,,,
,,,,,,,,9,2021-01-15_10h30.04.226,premce3DEU_ses-02_part-02_label-phase2,2020.1.2,Win32,60,right,0.75451,2,0.024025,0,16,16,120,1,stimuli/objects/panda.jpg,left,old,121,,,,,,,,
,,,,,,,,9,2021-01-15_10h30.04.226,premce3DEU_ses-02_part-02_label-phase2,2020.1.2,Win32,60,right,0.948985,2,0.001365,0,17,17,71,1,stimuli/objects/bed.jpg,right,new,72,,,,,,,,
,,,,,,,,9,2021-01-15_10h30.04.226,premce3DEU_ses-02_part-02_label-phase2,2020.1.2,Win32,60,left,0.682065,4,0.229935,0,18,18,48,1,stimuli/objects/bowlingpin.jpg,left,old,49,,,,,,,,
,,,,,,,,9,2021-01-15_10h30.04.226,premce3DEU_ses-02_part-02_label-phase2,2020.1.2,Win32,60,right,0.99466,2,0.55028,0,19,19,19,1,stimuli/objects/crosscountryski.jpg,right,new,20,,,,,,,,
,,,,,,,,9,2021-01-15_10h30.04.226,premce3DEU_ses-02_part-02_label-phase2,2020.1.2,Win32,60,right,1.028595,2,0.93821,0,20,20,143,1,stimuli/objects/faucet.jpg,right,new,144,,,,,,,,
,,,,,,,,9,2021-01-15_10h30.04.226,premce3DEU_ses-02_part-02_label-phase2,2020.1.2,Win32,60,right,1.807425,1,1.015555,0,21,21,100,1,stimuli/objects/macaroni01.jpg,right,new,101,,,,,,,,
,,,,,,,,9,2021-01-15_10h30.04.226,premce3DEU_ses-02_part-02_label-phase2,2020.1.2,Win32,60,left,0.99478,4,0.58366,0,22,22,61,1,stimuli/objects/jokercard.jpg,left,old,62,,,,,,,,
,,,,,,,,9,2021-01-15_10h30.04.226,premce3DEU_ses-02_part-02_label-phase2,2020.1.2,Win32,60,right,1.298515,3,0.995875,0,23,23,18,1,stimuli/objects/pingpongtable.jpg,right,new,19,,,,,,,,
,,,,,,,,9,2021-01-15_10h30.04.226,premce3DEU_ses-02_part-02_label-phase2,2020.1.2,Win32,60,left,1.331185,4,0.572985,0,24,24,99,1,stimuli/objects/waterfountain02.jpg,left,old,100,,,,,,,,
,,,,,,,,9,2021-01-15_10h30.04.226,premce3DEU_ses-02_part-02_label-phase2,2020.1.2,Win32,60,right,0.822815,2,0.51881,0,25,25,96,1,stimuli/objects/awning.jpg,right,new,97,,,,,,,,
,,,,,,,,9,2021-01-15_10h30.04.226,premce3DEU_ses-02_part-02_label-phase2,2020.1.2,Win32,60,left,0.75308,4,0.35722,0,26,26,79,1,stimuli/objects/callbell.jpg,left,old,80,,,,,,,,
,,,,,,,,9,2021-01-15_10h30.04.226,premce3DEU_ses-02_part-02_label-phase2,2020.1.2,Win32,60,right,0.739335,3,0.33375,0,27,27,81,1,stimuli/objects/lighthouse.jpg,right,new,82,,,,,,,,
,,,,,,,,9,2021-01-15_10h30.04.226,premce3DEU_ses-02_part-02_label-phase2,2020.1.2,Win32,60,right,1.09958,2,0.33238,0,28,28,60,1,stimuli/objects/banjo.jpg,right,new,61,,,,,,,,
,,,,,,,,9,2021-01-15_10h30.04.226,premce3DEU_ses-02_part-02_label-phase2,2020.1.2,Win32,60,left,1.014025,4,0.267545,0,29,29,123,1,stimuli/objects/lintroller.jpg,left,old,124,,,,,,,,
,,,,,,,,9,2021-01-15_10h30.04.226,premce3DEU_ses-02_part-02_label-phase2,2020.1.2,Win32,60,left,0.82172,3,0.729495,0,30,30,3,1,stimuli/objects/vacuumcleaner01.jpg,left,old,4,,,,,,,,
,,,,,,,,9,2021-01-15_10h30.04.226,premce3DEU_ses-02_part-02_label-phase2,2020.1.2,Win32,60,left,1.065005,2,0.56414,0,31,31,102,1,stimuli/objects/forklift.jpg,left,old,103,,,,,,,,
,,,,,,,,9,2021-01-15_10h30.04.226,premce3DEU_ses-02_part-02_label-phase2,2020.1.2,Win32,60,right,0.91997,3,0.836015,0,32,32,147,1,stimuli/objects/toiletbrush.jpg,right,new,148,,,,,,,,
,,,,,,,,9,2021-01-15_10h30.04.226,premce3DEU_ses-02_part-02_label-phase2,2020.1.2,Win32,60,right,0.929695,2,0.56389,0,33,33,155,1,stimuli/objects/calendar.jpg,right,new,156,,,,,,,,
,,,,,,,,9,2021-01-15_10h30.04.226,premce3DEU_ses-02_part-02_label-phase2,2020.1.2,Win32,60,left,1.182785,2,0.41443,0,34,34,137,1,stimuli/objects/brownsugar.jpg,left,old,138,,,,,,,,
,,,,,,,,9,2021-01-15_10h30.04.226,premce3DEU_ses-02_part-02_label-phase2,2020.1.2,Win32,60,right,1.207275,2,0.70393,0,35,35,140,1,stimuli/objects/exitsign.jpg,left,old,141,,,,,,,,
,,,,,,,,9,2021-01-15_10h30.04.226,premce3DEU_ses-02_part-02_label-phase2,2020.1.2,Win32,60,right,0.898525,2,0.284855,0,36,36,125,1,stimuli/objects/freezer02.jpg,right,new,126,,,,,,,,
,,,,,,,,9,2021-01-15_10h30.04.226,premce3DEU_ses-02_part-02_label-phase2,2020.1.2,Win32,60,left,0.71906,4,0.22438,0,37,37,77,1,stimuli/objects/fishskeleton.jpg,left,old,78,,,,,,,,
,,,,,,,,9,2021-01-15_10h30.04.226,premce3DEU_ses-02_part-02_label-phase2,2020.1.2,Win32,60,left,0.67779,4,0.25627,0,38,38,47,1,stimuli/objects/stepladder.jpg,left,old,48,,,,,,,,
,,,,,,,,9,2021-01-15_10h30.04.226,premce3DEU_ses-02_part-02_label-phase2,2020.1.2,Win32,60,left,0.673705,4,0.295665,0,39,39,16,1,stimuli/objects/cactus.jpg,left,old,17,,,,,,,,
,,,,,,,,9,2021-01-15_10h30.04.226,premce3DEU_ses-02_part-02_label-phase2,2020.1.2,Win32,60,right,0.74814,3,0.330975,0,40,40,51,1,stimuli/objects/road02.jpg,right,new,52,,,,,,,,
,,,,,,,,9,2021-01-15_10h30.04.226,premce3DEU_ses-02_part-02_label-phase2,2020.1.2,Win32,60,left,1.4195,2,0.330835,0,41,41,38,1,stimuli/objects/pig.jpg,right,new,39,,,,,,,,
,,,,,,,,9,2021-01-15_10h30.04.226,premce3DEU_ses-02_part-02_label-phase2,2020.1.2,Win32,60,right,0.89517,1,1.499955,0,42,42,111,1,stimuli/objects/platypus.jpg,right,new,112,,,,,,,,
,,,,,,,,9,2021-01-15_10h30.04.226,premce3DEU_ses-02_part-02_label-phase2,2020.1.2,Win32,60,left,1.013805,3,0.431465,0,43,43,11,1,stimuli/objects/cannon.jpg,left,old,12,,,,,,,,
,,,,,,,,9,2021-01-15_10h30.04.226,premce3DEU_ses-02_part-02_label-phase2,2020.1.2,Win32,60,right,0.74815,1,0.72842,0,44,44,14,1,stimuli/objects/canoepaddle02.jpg,left,old,15,,,,,,,,
,,,,,,,,9,2021-01-15_10h30.04.226,premce3DEU_ses-02_part-02_label-phase2,2020.1.2,Win32,60,left,0.79863,3,0.151165,0,45,45,101,1,stimuli/objects/apron.jpg,left,old,102,,,,,,,,
,,,,,,,,9,2021-01-15_10h30.04.226,premce3DEU_ses-02_part-02_label-phase2,2020.1.2,Win32,60,left,0.575475,4,0.319765,0,46,46,68,1,stimuli/objects/cuttlefish.jpg,left,old,69,,,,,,,,
,,,,,,,,9,2021-01-15_10h30.04.226,premce3DEU_ses-02_part-02_label-phase2,2020.1.2,Win32,60,right,0.840635,2,0.346825,0,47,47,92,1,stimuli/objects/armchair02.jpg,right,new,93,,,,,,,,
,,,,,,,,9,2021-01-15_10h30.04.226,premce3DEU_ses-02_part-02_label-phase2,2020.1.2,Win32,60,left,0.70872,4,0.28871,0,48,48,56,1,stimuli/objects/jeans01.jpg,left,old,57,,,,,,,,
,,,,,,,,9,2021-01-15_10h30.04.226,premce3DEU_ses-02_part-02_label-phase2,2020.1.2,Win32,60,right,0.913225,2,0.444275,0,49,49,138,1,stimuli/objects/cow.jpg,right,new,139,,,,,,,,
,,,,,,,,9,2021-01-15_10h30.04.226,premce3DEU_ses-02_part-02_label-phase2,2020.1.2,Win32,60,left,0.847655,3,0.06446,0,50,50,36,1,stimuli/objects/christmaslights.jpg,left,old,37,,,,,,,,
,,,,,,,,9,2021-01-15_10h30.04.226,premce3DEU_ses-02_part-02_label-phase2,2020.1.2,Win32,60,right,0.901225,2,0.39404,0,51,51,128,1,stimuli/objects/makiroll.jpg,right,new,129,,,,,,,,
,,,,,,,,9,2021-01-15_10h30.04.226,premce3DEU_ses-02_part-02_label-phase2,2020.1.2,Win32,60,left,0.78922,4,0.19943,0,52,52,69,1,stimuli/objects/granolabar01.jpg,left,old,70,,,,,,,,
,,,,,,,,9,2021-01-15_10h30.04.226,premce3DEU_ses-02_part-02_label-phase2,2020.1.2,Win32,60,left,0.754665,4,0.056635,0,53,53,114,1,stimuli/objects/star.jpg,left,old,115,,,,,,,,
,,,,,,,,9,2021-01-15_10h30.04.226,premce3DEU_ses-02_part-02_label-phase2,2020.1.2,Win32,60,left,0.635815,4,0.001125,0,54,54,70,1,stimuli/objects/balcony02.jpg,left,old,71,,,,,,,,
,,,,,,,,9,2021-01-15_10h30.04.226,premce3DEU_ses-02_part-02_label-phase2,2020.1.2,Win32,60,right,0.788045,2,0.788395,0,55,55,23,1,stimuli/objects/lollipop04.jpg,right,new,24,,,,,,,,
,,,,,,,,9,2021-01-15_10h30.04.226,premce3DEU_ses-02_part-02_label-phase2,2020.1.2,Win32,60,left,0.682065,3,0.228675,0,56,56,122,1,stimuli/objects/soccerball.jpg,left,old,123,,,,,,,,
,,,,,,,,9,2021-01-15_10h30.04.226,premce3DEU_ses-02_part-02_label-phase2,2020.1.2,Win32,60,right,1.209425,2,0.34994,0,57,57,63,1,stimuli/objects/toasteroven.jpg,right,new,64,,,,,,,,
,,,,,,,,9,2021-01-15_10h30.04.226,premce3DEU_ses-02_part-02_label-phase2,2020.1.2,Win32,60,right,1.865075,1,0.23539,0,58,58,4,1,stimuli/objects/skipole.jpg,right,new,5,,,,,,,,
,,,,,,,,9,2021-01-15_10h30.04.226,premce3DEU_ses-02_part-02_label-phase2,2020.1.2,Win32,60,left,1.78819,2,0.306655,0,59,59,93,1,stimuli/objects/discoball.jpg,right,new,94,,,,,,,,
,,,,,,,,9,2021-01-15_10h30.04.226,premce3DEU_ses-02_part-02_label-phase2,2020.1.2,Win32,60,right,0.930395,2,0.40457,0,60,60,42,1,stimuli/objects/snowshoe.jpg,right,new,43,,,,,,,,
,,,,,,,,9,2021-01-15_10h30.04.226,premce3DEU_ses-02_part-02_label-phase2,2020.1.2,Win32,60,left,1.595445,1,0.36445,0,61,61,159,1,stimuli/objects/stairs.jpg,right,new,160,,,,,,,,
,,,,,,,,9,2021-01-15_10h30.04.226,premce3DEU_ses-02_part-02_label-phase2,2020.1.2,Win32,60,right,1.468645,2,0.121605,0,62,62,133,1,stimuli/objects/sink.jpg,right,new,134,,,,,,,,
,,,,,,,,9,2021-01-15_10h30.04.226,premce3DEU_ses-02_part-02_label-phase2,2020.1.2,Win32,60,left,0.811255,4,0.351395,0,63,63,75,1,stimuli/objects/barn.jpg,left,old,76,,,,,,,,
,,,,,,,,9,2021-01-15_10h30.04.226,premce3DEU_ses-02_part-02_label-phase2,2020.1.2,Win32,60,right,0.91969,3,0.238185,0,64,64,20,1,stimuli/objects/accordion01.jpg,right,new,21,,,,,,,,
,,,,,,,,9,2021-01-15_10h30.04.226,premce3DEU_ses-02_part-02_label-phase2,2020.1.2,Win32,60,right,1.11082,2,0.034855,0,65,65,131,1,stimuli/objects/missile.jpg,right,new,132,,,,,,,,
,,,,,,,,9,2021-01-15_10h30.04.226,premce3DEU_ses-02_part-02_label-phase2,2020.1.2,Win32,60,right,1.29474,2,0.37311,0,66,66,94,1,stimuli/objects/dandelion.jpg,right,new,95,,,,,,,,
,,,,,,,,9,2021-01-15_10h30.04.226,premce3DEU_ses-02_part-02_label-phase2,2020.1.2,Win32,60,right,0.770145,2,0.125125,0,67,67,110,1,stimuli/objects/foosballtable.jpg,right,new,111,,,,,,,,
,,,,,,,,9,2021-01-15_10h30.04.226,premce3DEU_ses-02_part-02_label-phase2,2020.1.2,Win32,60,left,0.84619,4,0.06919,0,68,68,45,1,stimuli/objects/fridge.jpg,left,old,46,,,,,,,,
,,,,,,,,9,2021-01-15_10h30.04.226,premce3DEU_ses-02_part-02_label-phase2,2020.1.2,Win32,60,right,0.74411,3,0.309575,0,69,69,150,1,stimuli/objects/eiffeltower.jpg,right,new,151,,,,,,,,
,,,,,,,,9,2021-01-15_10h30.04.226,premce3DEU_ses-02_part-02_label-phase2,2020.1.2,Win32,60,left,1.230115,4,0.36507,0,70,70,151,1,stimuli/objects/contactlens.jpg,left,old,152,,,,,,,,
,,,,,,,,9,2021-01-15_10h30.04.226,premce3DEU_ses-02_part-02_label-phase2,2020.1.2,Win32,60,left,1.307785,3,0.215765,0,71,71,105,1,stimuli/objects/gps.jpg,left,old,106,,,,,,,,
,,,,,,,,9,2021-01-15_10h30.04.226,premce3DEU_ses-02_part-02_label-phase2,2020.1.2,Win32,60,right,0.88103,1,0.31674,0,72,72,139,1,stimuli/objects/safe.jpg,right,new,140,,,,,,,,
,,,,,,,,9,2021-01-15_10h30.04.226,premce3DEU_ses-02_part-02_label-phase2,2020.1.2,Win32,60,right,0.85903,3,0.685775,0,73,73,112,1,stimuli/objects/tank.jpg,right,new,113,,,,,,,,
,,,,,,,,9,2021-01-15_10h30.04.226,premce3DEU_ses-02_part-02_label-phase2,2020.1.2,Win32,60,left,0.6319,4,0.320935,0,74,74,130,1,stimuli/objects/tulip02.jpg,left,old,131,,,,,,,,
,,,,,,,,9,2021-01-15_10h30.04.226,premce3DEU_ses-02_part-02_label-phase2,2020.1.2,Win32,60,left,0.91949,4,0.33709,0,75,75,153,1,stimuli/objects/coffeemachine.jpg,left,old,154,,,,,,,,
,,,,,,,,9,2021-01-15_10h30.04.226,premce3DEU_ses-02_part-02_label-phase2,2020.1.2,Win32,60,left,0.694255,4,0.183855,0,76,76,29,1,stimuli/objects/snowman.jpg,left,old,30,,,,,,,,
,,,,,,,,9,2021-01-15_10h30.04.226,premce3DEU_ses-02_part-02_label-phase2,2020.1.2,Win32,60,left,0.549635,4,0.217125,0,77,77,157,1,stimuli/objects/cookingpot.jpg,left,old,158,,,,,,,,
,,,,,,,,9,2021-01-15_10h30.04.226,premce3DEU_ses-02_part-02_label-phase2,2020.1.2,Win32,60,right,0.742025,2,0.5453,0,78,78,22,1,stimuli/objects/paperairplane.jpg,right,new,23,,,,,,,,
,,,,,,,,9,2021-01-15_10h30.04.226,premce3DEU_ses-02_part-02_label-phase2,2020.1.2,Win32,60,right,0.815655,2,0.28224,0,79,79,146,1,stimuli/objects/ant.jpg,right,new,147,,,,,,,,
,,,,,,,,9,2021-01-15_10h30.04.226,premce3DEU_ses-02_part-02_label-phase2,2020.1.2,Win32,60,left,0.62197,4,0.378735,0,80,80,88,1,stimuli/objects/jackrabbit.jpg,left,old,89,,,,,,,,
,,,,,,,,9,2021-01-15_10h30.04.226,premce3DEU_ses-02_part-02_label-phase2,2020.1.2,Win32,60,right,0.815425,3,0.44741,0,81,81,82,1,stimuli/objects/crown.jpg,left,old,83,,,,,,,,
,,,,,,,,9,2021-01-15_10h30.04.226,premce3DEU_ses-02_part-02_label-phase2,2020.1.2,Win32,60,right,1.248715,2,0.07142,0,82,82,24,1,stimuli/objects/icecube02.jpg,right,new,25,,,,,,,,
,,,,,,,,9,2021-01-15_10h30.04.226,premce3DEU_ses-02_part-02_label-phase2,2020.1.2,Win32,60,left,0.875485,4,0.22842,0,83,83,107,1,stimuli/objects/musicstand.jpg,left,old,108,,,,,,,,
,,,,,,,,9,2021-01-15_10h30.04.226,premce3DEU_ses-02_part-02_label-phase2,2020.1.2,Win32,60,right,0.954745,2,0.03621,0,84,84,89,1,stimuli/objects/bowlingball.jpg,right,new,90,,,,,,,,
,,,,,,,,9,2021-01-15_10h30.04.226,premce3DEU_ses-02_part-02_label-phase2,2020.1.2,Win32,60,right,1.250385,2,0.51941,0,85,85,86,1,stimuli/objects/chimney.jpg,right,new,87,,,,,,,,
,,,,,,,,9,2021-01-15_10h30.04.226,premce3DEU_ses-02_part-02_label-phase2,2020.1.2,Win32,60,right,0.92695,2,0.36536,0,86,86,156,1,stimuli/objects/skateboard.jpg,left,old,157,,,,,,,,
,,,,,,,,9,2021-01-15_10h30.04.226,premce3DEU_ses-02_part-02_label-phase2,2020.1.2,Win32,60,right,1.28597,2,0.252345,0,87,87,136,1,stimuli/objects/wheat.jpg,right,new,137,,,,,,,,
,,,,,,,,9,2021-01-15_10h30.04.226,premce3DEU_ses-02_part-02_label-phase2,2020.1.2,Win32,60,left,0.746,4,0.32913,0,88,88,116,1,stimuli/objects/toucan.jpg,right,new,117,,,,,,,,
,,,,,,,,9,2021-01-15_10h30.04.226,premce3DEU_ses-02_part-02_label-phase2,2020.1.2,Win32,60,left,0.683915,1,0.396245,0,89,89,129,1,stimuli/objects/lawnmower.jpg,right,new,130,,,,,,,,
,,,,,,,,9,2021-01-15_10h30.04.226,premce3DEU_ses-02_part-02_label-phase2,2020.1.2,Win32,60,right,0.9832,3,0.318715,0,90,90,53,1,stimuli/objects/honeybee.jpg,right,new,54,,,,,,,,
,,,,,,,,9,2021-01-15_10h30.04.226,premce3DEU_ses-02_part-02_label-phase2,2020.1.2,Win32,60,left,1.13313,4,0.262385,0,91,91,65,1,stimuli/objects/weddingcake.jpg,left,old,66,,,,,,,,
,,,,,,,,9,2021-01-15_10h30.04.226,premce3DEU_ses-02_part-02_label-phase2,2020.1.2,Win32,60,left,0.727955,4,0.27752,0,92,92,132,1,stimuli/objects/shower.jpg,left,old,133,,,,,,,,
,,,,,,,,9,2021-01-15_10h30.04.226,premce3DEU_ses-02_part-02_label-phase2,2020.1.2,Win32,60,right,0.850975,2,0.09017,0,93,93,8,1,stimuli/objects/englishcucumber.jpg,right,new,9,,,,,,,,
,,,,,,,,9,2021-01-15_10h30.04.226,premce3DEU_ses-02_part-02_label-phase2,2020.1.2,Win32,60,right,1.01242,2,0.0991,0,94,94,12,1,stimuli/objects/pigeon.jpg,right,new,13,,,,,,,,
,,,,,,,,9,2021-01-15_10h30.04.226,premce3DEU_ses-02_part-02_label-phase2,2020.1.2,Win32,60,right,1.46334,1,0.499885,0,95,95,5,1,stimuli/objects/horse.jpg,left,old,6,,,,,,,,
,,,,,,,,9,2021-01-15_10h30.04.226,premce3DEU_ses-02_part-02_label-phase2,2020.1.2,Win32,60,left,1.787115,3,0.48616,0,96,96,0,1,stimuli/objects/treestump.jpg,left,old,1,,,,,,,,
,,,,,,,,9,2021-01-15_10h30.04.226,premce3DEU_ses-02_part-02_label-phase2,2020.1.2,Win32,60,left,0.855235,3,0.30544,0,97,97,67,1,stimuli/objects/volleyball.jpg,left,old,68,,,,,,,,
,,,,,,,,9,2021-01-15_10h30.04.226,premce3DEU_ses-02_part-02_label-phase2,2020.1.2,Win32,60,left,0.917535,4,0.1114,0,98,98,84,1,stimuli/objects/winniethepooh.jpg,left,old,85,,,,,,,,
,,,,,,,,9,2021-01-15_10h30.04.226,premce3DEU_ses-02_part-02_label-phase2,2020.1.2,Win32,60,left,1.69536,2,0.24937,0,99,99,1,1,stimuli/objects/pooltable.jpg,right,new,2,,,,,,,,
,,,,,,,,9,2021-01-15_10h30.04.226,premce3DEU_ses-02_part-02_label-phase2,2020.1.2,Win32,60,left,0.641645,4,0.350065,0,100,100,104,1,stimuli/objects/porcupine.jpg,left,old,105,,,,,,,,
,,,,,,,,9,2021-01-15_10h30.04.226,premce3DEU_ses-02_part-02_label-phase2,2020.1.2,Win32,60,left,0.806155,2,0.49524,0,101,101,15,1,stimuli/objects/dromedary.jpg,left,old,16,,,,,,,,
,,,,,,,,9,2021-01-15_10h30.04.226,premce3DEU_ses-02_part-02_label-phase2,2020.1.2,Win32,60,left,0.716615,1,0.490035,0,102,102,87,1,stimuli/objects/filingcabinet.jpg,left,old,88,,,,,,,,
,,,,,,,,9,2021-01-15_10h30.04.226,premce3DEU_ses-02_part-02_label-phase2,2020.1.2,Win32,60,right,1.082325,3,0.16256,0,103,103,109,1,stimuli/objects/webcam.jpg,right,new,110,,,,,,,,
,,,,,,,,9,2021-01-15_10h30.04.226,premce3DEU_ses-02_part-02_label-phase2,2020.1.2,Win32,60,right,0.94726,2,0.507085,0,104,104,9,1,stimuli/objects/rose.jpg,right,new,10,,,,,,,,
,,,,,,,,9,2021-01-15_10h30.04.226,premce3DEU_ses-02_part-02_label-phase2,2020.1.2,Win32,60,right,1.16458,2,0.17752,0,105,105,126,1,stimuli/objects/bat.jpg,right,new,127,,,,,,,,
,,,,,,,,9,2021-01-15_10h30.04.226,premce3DEU_ses-02_part-02_label-phase2,2020.1.2,Win32,60,left,0.646215,4,0.35697,0,106,106,21,1,stimuli/objects/tire.jpg,right,new,22,,,,,,,,
,,,,,,,,9,2021-01-15_10h30.04.226,premce3DEU_ses-02_part-02_label-phase2,2020.1.2,Win32,60,right,1.0673,2,0.467785,0,107,107,57,1,stimuli/objects/cupcake.jpg,right,new,58,,,,,,,,
,,,,,,,,9,2021-01-15_10h30.04.226,premce3DEU_ses-02_part-02_label-phase2,2020.1.2,Win32,60,left,0.770485,4,0.343005,0,108,108,124,1,stimuli/objects/handheldtelescope.jpg,left,old,125,,,,,,,,
,,,,,,,,9,2021-01-15_10h30.04.226,premce3DEU_ses-02_part-02_label-phase2,2020.1.2,Win32,60,left,0.895525,4,0.08046,0,109,109,35,1,stimuli/objects/skihelmet01.jpg,left,old,36,,,,,,,,
,,,,,,,,9,2021-01-15_10h30.04.226,premce3DEU_ses-02_part-02_label-phase2,2020.1.2,Win32,60,left,0.667635,4,0.38227,0,110,110,64,1,stimuli/objects/dalmatian.jpg,left,old,65,,,,,,,,
,,,,,,,,9,2021-01-15_10h30.04.226,premce3DEU_ses-02_part-02_label-phase2,2020.1.2,Win32,60,left,1.08122,4,0.097825,0,111,111,2,1,stimuli/objects/table01.jpg,left,old,3,,,,,,,,
,,,,,,,,9,2021-01-15_10h30.04.226,premce3DEU_ses-02_part-02_label-phase2,2020.1.2,Win32,60,right,0.82389,3,0.233645,0,112,112,91,1,stimuli/objects/eyepatch.jpg,left,old,92,,,,,,,,
,,,,,,,,9,2021-01-15_10h30.04.226,premce3DEU_ses-02_part-02_label-phase2,2020.1.2,Win32,60,right,0.983065,2,0.213915,0,113,113,108,1,stimuli/objects/communitymailbox.jpg,left,old,109,,,,,,,,
,,,,,,,,9,2021-01-15_10h30.04.226,premce3DEU_ses-02_part-02_label-phase2,2020.1.2,Win32,60,right,0.780675,1,0.93341,0,114,114,115,1,stimuli/objects/lantern03.jpg,left,old,116,,,,,,,,
,,,,,,,,9,2021-01-15_10h30.04.226,premce3DEU_ses-02_part-02_label-phase2,2020.1.2,Win32,60,left,0.991715,4,0.29964,0,115,115,127,1,stimuli/objects/sausage.jpg,left,old,128,,,,,,,,
,,,,,,,,9,2021-01-15_10h30.04.226,premce3DEU_ses-02_part-02_label-phase2,2020.1.2,Win32,60,right,0.947925,3,0.191805,0,116,116,26,1,stimuli/objects/sledgehammer.jpg,right,new,27,,,,,,,,
,,,,,,,,9,2021-01-15_10h30.04.226,premce3DEU_ses-02_part-02_label-phase2,2020.1.2,Win32,60,right,1.597565,1,0.050225,0,117,117,43,1,stimuli/objects/ostrich.jpg,right,new,44,,,,,,,,
,,,,,,,,9,2021-01-15_10h30.04.226,premce3DEU_ses-02_part-02_label-phase2,2020.1.2,Win32,60,right,1.682225,2,0.200335,0,118,118,90,1,stimuli/objects/trailer.jpg,right,new,91,,,,,,,,
,,,,,,,,9,2021-01-15_10h30.04.226,premce3DEU_ses-02_part-02_label-phase2,2020.1.2,Win32,60,left,0.98651,4,0.255835,0,119,119,40,1,stimuli/objects/cremebrulee.jpg,left,old,41,,,,,,,,
,,,,,,,,9,2021-01-15_10h30.04.226,premce3DEU_ses-02_part-02_label-phase2,2020.1.2,Win32,60,right,1.802975,2,0.40339,0,120,120,152,1,stimuli/objects/urinal.jpg,left,old,153,,,,,,,,
,,,,,,,,9,2021-01-15_10h30.04.226,premce3DEU_ses-02_part-02_label-phase2,2020.1.2,Win32,60,left,0.9674,4,0.23253,0,121,121,103,1,stimuli/objects/salmon.jpg,left,old,104,,,,,,,,
,,,,,,,,9,2021-01-15_10h30.04.226,premce3DEU_ses-02_part-02_label-phase2,2020.1.2,Win32,60,right,1.0494,2,0.14173,0,122,122,121,1,stimuli/objects/riverotter.jpg,right,new,122,,,,,,,,
,,,,,,,,9,2021-01-15_10h30.04.226,premce3DEU_ses-02_part-02_label-phase2,2020.1.2,Win32,60,left,0.640315,4,0.15208,0,123,123,44,1,stimuli/objects/artichoke01b.jpg,left,old,45,,,,,,,,
,,,,,,,,9,2021-01-15_10h30.04.226,premce3DEU_ses-02_part-02_label-phase2,2020.1.2,Win32,60,right,0.840965,1,0.295405,0,124,124,41,1,stimuli/objects/faxmachine.jpg,right,new,42,,,,,,,,
,,,,,,,,9,2021-01-15_10h30.04.226,premce3DEU_ses-02_part-02_label-phase2,2020.1.2,Win32,60,right,1.332965,3,0.14169,0,125,125,30,1,stimuli/objects/fortunecookie.jpg,right,new,31,,,,,,,,
,,,,,,,,9,2021-01-15_10h30.04.226,premce3DEU_ses-02_part-02_label-phase2,2020.1.2,Win32,60,left,0.96245,4,0.25399,0,126,126,142,1,stimuli/objects/giraffe.jpg,left,old,143,,,,,,,,
,,,,,,,,9,2021-01-15_10h30.04.226,premce3DEU_ses-02_part-02_label-phase2,2020.1.2,Win32,60,right,0.71077,2,0.12794,0,127,127,10,1,stimuli/objects/tablesaw.jpg,right,new,11,,,,,,,,
,,,,,,,,9,2021-01-15_10h30.04.226,premce3DEU_ses-02_part-02_label-phase2,2020.1.2,Win32,60,left,0.650365,4,0.14726,0,128,128,83,1,stimuli/objects/flugglehorn.jpg,right,new,84,,,,,,,,
,,,,,,,,9,2021-01-15_10h30.04.226,premce3DEU_ses-02_part-02_label-phase2,2020.1.2,Win32,60,right,0.5936,3,0.281645,0,129,129,33,1,stimuli/objects/caribou02.jpg,right,new,34,,,,,,,,
,,,,,,,,9,2021-01-15_10h30.04.226,premce3DEU_ses-02_part-02_label-phase2,2020.1.2,Win32,60,right,0.891325,4,0.269295,0,130,130,134,1,stimuli/objects/nunchuk.jpg,right,new,135,,,,,,,,
,,,,,,,,9,2021-01-15_10h30.04.226,premce3DEU_ses-02_part-02_label-phase2,2020.1.2,Win32,60,right,1.493595,1,0.11574,0,131,131,97,1,stimuli/objects/dreamcatcher.jpg,left,old,98,,,,,,,,
,,,,,,,,9,2021-01-15_10h30.04.226,premce3DEU_ses-02_part-02_label-phase2,2020.1.2,Win32,60,right,0.949105,2,0.249035,0,132,132,52,1,stimuli/objects/turkey.jpg,right,new,53,,,,,,,,
,,,,,,,,9,2021-01-15_10h30.04.226,premce3DEU_ses-02_part-02_label-phase2,2020.1.2,Win32,60,right,0.89184,1,0.63499,0,133,133,34,1,stimuli/objects/aquarium.jpg,left,old,35,,,,,,,,
,,,,,,,,9,2021-01-15_10h30.04.226,premce3DEU_ses-02_part-02_label-phase2,2020.1.2,Win32,60,left,1.006025,4,0.36308,0,134,134,78,1,stimuli/objects/monarchbutterfly.jpg,left,old,79,,,,,,,,
,,,,,,,,9,2021-01-15_10h30.04.226,premce3DEU_ses-02_part-02_label-phase2,2020.1.2,Win32,60,right,1.082655,2,0.66887,0,135,135,32,1,stimuli/objects/moth.jpg,right,new,33,,,,,,,,
,,,,,,,,9,2021-01-15_10h30.04.226,premce3DEU_ses-02_part-02_label-phase2,2020.1.2,Win32,60,left,0.965305,4,0.13234,0,136,136,28,1,stimuli/objects/seaturtle.jpg,left,old,29,,,,,,,,
,,,,,,,,9,2021-01-15_10h30.04.226,premce3DEU_ses-02_part-02_label-phase2,2020.1.2,Win32,60,right,0.8189,3,0.053725,0,137,137,80,1,stimuli/objects/tree.jpg,right,new,81,,,,,,,,
,,,,,,,,9,2021-01-15_10h30.04.226,premce3DEU_ses-02_part-02_label-phase2,2020.1.2,Win32,60,right,0.978095,2,0.09882,0,138,138,72,1,stimuli/objects/totempole.jpg,right,new,73,,,,,,,,
,,,,,,,,9,2021-01-15_10h30.04.226,premce3DEU_ses-02_part-02_label-phase2,2020.1.2,Win32,60,right,0.699305,3,0.42328,0,139,139,76,1,stimuli/objects/morningstar.jpg,right,new,77,,,,,,,,
,,,,,,,,9,2021-01-15_10h30.04.226,premce3DEU_ses-02_part-02_label-phase2,2020.1.2,Win32,60,right,1.312445,1,0.228955,0,140,140,54,1,stimuli/objects/toynutcracker.jpg,right,new,55,,,,,,,,
,,,,,,,,9,2021-01-15_10h30.04.226,premce3DEU_ses-02_part-02_label-phase2,2020.1.2,Win32,60,right,0.91599,3,0.30163,0,141,141,73,1,stimuli/objects/guitarcase.jpg,right,new,74,,,,,,,,
,,,,,,,,9,2021-01-15_10h30.04.226,premce3DEU_ses-02_part-02_label-phase2,2020.1.2,Win32,60,right,0.843735,2,0.351095,0,142,142,106,1,stimuli/objects/helicopter.jpg,right,new,107,,,,,,,,
,,,,,,,,9,2021-01-15_10h30.04.226,premce3DEU_ses-02_part-02_label-phase2,2020.1.2,Win32,60,left,0.79731,4,0.033985,0,143,143,74,1,stimuli/objects/windturbine.jpg,left,old,75,,,,,,,,
,,,,,,,,9,2021-01-15_10h30.04.226,premce3DEU_ses-02_part-02_label-phase2,2020.1.2,Win32,60,right,0.760485,3,0.573045,0,144,144,46,1,stimuli/objects/entrancegate.jpg,right,new,47,,,,,,,,
,,,,,,,,9,2021-01-15_10h30.04.226,premce3DEU_ses-02_part-02_label-phase2,2020.1.2,Win32,60,left,1.50769,2,0.0621,0,145,145,144,1,stimuli/objects/trombone.jpg,left,old,145,,,,,,,,
,,,,,,,,9,2021-01-15_10h30.04.226,premce3DEU_ses-02_part-02_label-phase2,2020.1.2,Win32,60,left,1.155335,2,0.44813,0,146,146,25,1,stimuli/objects/honeycomb.jpg,right,new,26,,,,,,,,
,,,,,,,,9,2021-01-15_10h30.04.226,premce3DEU_ses-02_part-02_label-phase2,2020.1.2,Win32,60,right,1.014495,3,0.546645,0,147,147,55,1,stimuli/objects/drumstick.jpg,right,new,56,,,,,,,,
,,,,,,,,9,2021-01-15_10h30.04.226,premce3DEU_ses-02_part-02_label-phase2,2020.1.2,Win32,60,right,1.144525,2,0.001935,0,148,148,59,1,stimuli/objects/birdhouse.jpg,right,new,60,,,,,,,,
,,,,,,,,9,2021-01-15_10h30.04.226,premce3DEU_ses-02_part-02_label-phase2,2020.1.2,Win32,60,left,0.988825,4,0.33351,0,149,149,58,1,stimuli/objects/beaver.jpg,left,old,59,,,,,,,,
,,,,,,,,9,2021-01-15_10h30.04.226,premce3DEU_ses-02_part-02_label-phase2,2020.1.2,Win32,60,left,1.31757,2,0.147475,0,150,150,118,1,stimuli/objects/microwave.jpg,left,old,119,,,,,,,,
,,,,,,,,9,2021-01-15_10h30.04.226,premce3DEU_ses-02_part-02_label-phase2,2020.1.2,Win32,60,right,1.05709,3,0.472175,0,151,151,113,1,stimuli/objects/shoppingcart.jpg,right,new,114,,,,,,,,
,,,,,,,,9,2021-01-15_10h30.04.226,premce3DEU_ses-02_part-02_label-phase2,2020.1.2,Win32,60,left,1.176075,2,0.51584,0,152,152,13,1,stimuli/objects/tower.jpg,right,new,14,,,,,,,,
,,,,,,,,9,2021-01-15_10h30.04.226,premce3DEU_ses-02_part-02_label-phase2,2020.1.2,Win32,60,left,1.07224,3,0.004435,0,153,153,85,1,stimuli/objects/bridge.jpg,right,new,86,,,,,,,,
,,,,,,,,9,2021-01-15_10h30.04.226,premce3DEU_ses-02_part-02_label-phase2,2020.1.2,Win32,60,right,0.99745,2,0.485645,0,154,154,39,1,stimuli/objects/electrictoothbrush01c.jpg,right,new,40,,,,,,,,
,,,,,,,,9,2021-01-15_10h30.04.226,premce3DEU_ses-02_part-02_label-phase2,2020.1.2,Win32,60,left,1.55074,4,0.04459,0,155,155,50,1,stimuli/objects/lionstatue.jpg,left,old,51,,,,,,,,
,,,,,,,,9,2021-01-15_10h30.04.226,premce3DEU_ses-02_part-02_label-phase2,2020.1.2,Win32,60,right,1.120205,3,0.478575,0,156,156,119,1,stimuli/objects/kite.jpg,right,new,120,,,,,,,,
,,,,,,,,9,2021-01-15_10h30.04.226,premce3DEU_ses-02_part-02_label-phase2,2020.1.2,Win32,60,right,0.940425,2,0.528935,0,157,157,141,1,stimuli/objects/stroller.jpg,right,new,142,,,,,,,,
,,,,,,,,9,2021-01-15_10h30.04.226,premce3DEU_ses-02_part-02_label-phase2,2020.1.2,Win32,60,right,0.8799,1,0.745105,0,158,158,149,1,stimuli/objects/dolly01.jpg,right,new,150,,,,,,,,
,,,,,,,,9,2021-01-15_10h30.04.226,premce3DEU_ses-02_part-02_label-phase2,2020.1.2,Win32,60,right,0.876315,2,0.038365,0,159,159,145,1,stimuli/objects/church.jpg,right,new,146,,,,,,,,
,,,,,,,,9,2021-01-15_10h30.04.226,premce3DEU_ses-02_part-02_label-phase2,2020.1.2,Win32,60,,,,,,,,,,,,,,space,4.493405,0,0,0,0,1,ImagesforRecog1.csv
,,,,,,,,9,2021-01-15_10h30.04.226,premce3DEU_ses-02_part-02_label-phase2,2020.1.2,Win32,60,right,1.28728,2,0.2998,0,0,0,13,1,stimuli/objects/sailboat.jpg,left,old,174,,,,,,,,
,,,,,,,,9,2021-01-15_10h30.04.226,premce3DEU_ses-02_part-02_label-phase2,2020.1.2,Win32,60,right,0.879775,3,0.23741,0,1,1,23,1,stimuli/objects/graduationcap.jpg,right,new,184,,,,,,,,
,,,,,,,,9,2021-01-15_10h30.04.226,premce3DEU_ses-02_part-02_label-phase2,2020.1.2,Win32,60,right,0.97963,3,0.391085,0,2,2,20,1,stimuli/objects/toysoldier01b.jpg,right,new,181,,,,,,,,
,,,,,,,,9,2021-01-15_10h30.04.226,premce3DEU_ses-02_part-02_label-phase2,2020.1.2,Win32,60,left,0.781495,4,0.188415,0,3,3,22,1,stimuli/objects/crab01.jpg,left,old,183,,,,,,,,
,,,,,,,,9,2021-01-15_10h30.04.226,premce3DEU_ses-02_part-02_label-phase2,2020.1.2,Win32,60,left,0.900595,2,0.39718,0,4,4,158,1,stimuli/objects/bowrake.jpg,right,new,319,,,,,,,,
,,,,,,,,9,2021-01-15_10h30.04.226,premce3DEU_ses-02_part-02_label-phase2,2020.1.2,Win32,60,right,0.86799,3,0.305575,0,5,5,59,1,stimuli/objects/nosmokingsign.jpg,right,new,220,,,,,,,,
,,,,,,,,9,2021-01-15_10h30.04.226,premce3DEU_ses-02_part-02_label-phase2,2020.1.2,Win32,60,left,0.98648,2,0.34036,0,6,6,148,1,stimuli/objects/snowglobe.jpg,left,old,309,,,,,,,,
,,,,,,,,9,2021-01-15_10h30.04.226,premce3DEU_ses-02_part-02_label-phase2,2020.1.2,Win32,60,right,1.1391,3,0.54716,0,7,7,113,1,stimuli/objects/bluejay.jpg,right,new,274,,,,,,,,
,,,,,,,,9,2021-01-15_10h30.04.226,premce3DEU_ses-02_part-02_label-phase2,2020.1.2,Win32,60,left,1.090375,4,0.22148,0,8,8,141,1,stimuli/objects/gong.jpg,left,old,302,,,,,,,,
,,,,,,,,9,2021-01-15_10h30.04.226,premce3DEU_ses-02_part-02_label-phase2,2020.1.2,Win32,60,left,0.878095,4,0.11075,0,9,9,7,1,stimuli/objects/bolt01a.jpg,left,old,168,,,,,,,,
,,,,,,,,9,2021-01-15_10h30.04.226,premce3DEU_ses-02_part-02_label-phase2,2020.1.2,Win32,60,left,0.82436,4,0.154105,0,10,10,123,1,stimuli/objects/ironingboard01.jpg,left,old,284,,,,,,,,
,,,,,,,,9,2021-01-15_10h30.04.226,premce3DEU_ses-02_part-02_label-phase2,2020.1.2,Win32,60,right,0.83095,2,0.16248,0,11,11,21,1,stimuli/objects/gorilla.jpg,right,new,182,,,,,,,,
,,,,,,,,9,2021-01-15_10h30.04.226,premce3DEU_ses-02_part-02_label-phase2,2020.1.2,Win32,60,left,0.66914,4,0.11808,0,12,12,44,1,stimuli/objects/donut.jpg,left,old,205,,,,,,,,
,,,,,,,,9,2021-01-15_10h30.04.226,premce3DEU_ses-02_part-02_label-phase2,2020.1.2,Win32,60,left,0.826415,4,0.1108,0,13,13,85,1,stimuli/objects/skiboot01a.jpg,left,old,246,,,,,,,,
,,,,,,,,9,2021-01-15_10h30.04.226,premce3DEU_ses-02_part-02_label-phase2,2020.1.2,Win32,60,left,0.61938,4,0.26059,0,14,14,153,1,stimuli/objects/fluorescentlightbulb.jpg,left,old,314,,,,,,,,
,,,,,,,,9,2021-01-15_10h30.04.226,premce3DEU_ses-02_part-02_label-phase2,2020.1.2,Win32,60,left,0.51765,4,0.032255,0,15,15,92,1,stimuli/objects/mirror02.jpg,left,old,253,,,,,,,,
,,,,,,,,9,2021-01-15_10h30.04.226,premce3DEU_ses-02_part-02_label-phase2,2020.1.2,Win32,60,left,0.701195,3,0.11916,0,16,16,8,1,stimuli/objects/cloud.jpg,left,old,169,,,,,,,,
,,,,,,,,9,2021-01-15_10h30.04.226,premce3DEU_ses-02_part-02_label-phase2,2020.1.2,Win32,60,left,1.02744,2,0.08773,0,17,17,34,1,stimuli/objects/shelves.jpg,left,old,195,,,,,,,,
,,,,,,,,9,2021-01-15_10h30.04.226,premce3DEU_ses-02_part-02_label-phase2,2020.1.2,Win32,60,right,0.560945,1,0.54797,0,18,18,130,1,stimuli/objects/pirateflag.jpg,left,old,291,,,,,,,,
,,,,,,,,9,2021-01-15_10h30.04.226,premce3DEU_ses-02_part-02_label-phase2,2020.1.2,Win32,60,left,0.873825,4,0.40658,0,19,19,154,1,stimuli/objects/frisbee.jpg,left,old,315,,,,,,,,
,,,,,,,,9,2021-01-15_10h30.04.226,premce3DEU_ses-02_part-02_label-phase2,2020.1.2,Win32,60,left,0.68296,2,0.36262,0,20,20,4,1,stimuli/objects/blender.jpg,left,old,165,,,,,,,,
,,,,,,,,9,2021-01-15_10h30.04.226,premce3DEU_ses-02_part-02_label-phase2,2020.1.2,Win32,60,right,1.17795,2,0.576725,0,21,21,157,1,stimuli/objects/eagle.jpg,right,new,318,,,,,,,,
,,,,,,,,9,2021-01-15_10h30.04.226,premce3DEU_ses-02_part-02_label-phase2,2020.1.2,Win32,60,left,1.325685,4,0.221425,0,22,22,89,1,stimuli/objects/cruiseship.jpg,left,old,250,,,,,,,,
,,,,,,,,9,2021-01-15_10h30.04.226,premce3DEU_ses-02_part-02_label-phase2,2020.1.2,Win32,60,right,1.23705,2,0.13448,0,23,23,63,1,stimuli/objects/pin.jpg,right,new,224,,,,,,,,
,,,,,,,,9,2021-01-15_10h30.04.226,premce3DEU_ses-02_part-02_label-phase2,2020.1.2,Win32,60,left,1.008235,4,0.23653,0,24,24,90,1,stimuli/objects/battleaxe.jpg,left,old,251,,,,,,,,
,,,,,,,,9,2021-01-15_10h30.04.226,premce3DEU_ses-02_part-02_label-phase2,2020.1.2,Win32,60,left,0.71597,4,0.03838,0,25,25,2,1,stimuli/objects/moon.jpg,left,old,163,,,,,,,,
,,,,,,,,9,2021-01-15_10h30.04.226,premce3DEU_ses-02_part-02_label-phase2,2020.1.2,Win32,60,right,0.970505,3,0.22507,0,26,26,65,1,stimuli/objects/spacerover.jpg,right,new,226,,,,,,,,
,,,,,,,,9,2021-01-15_10h30.04.226,premce3DEU_ses-02_part-02_label-phase2,2020.1.2,Win32,60,right,0.978,2,0.147765,0,27,27,145,1,stimuli/objects/rooster.jpg,right,new,306,,,,,,,,
,,,,,,,,9,2021-01-15_10h30.04.226,premce3DEU_ses-02_part-02_label-phase2,2020.1.2,Win32,60,right,1.12588,1,0.14528,0,28,28,45,1,stimuli/objects/siamesecat.jpg,right,new,206,,,,,,,,
,,,,,,,,9,2021-01-15_10h30.04.226,premce3DEU_ses-02_part-02_label-phase2,2020.1.2,Win32,60,left,0.748935,3,0.255795,0,29,29,84,1,stimuli/objects/carbattery.jpg,right,new,245,,,,,,,,
,,,,,,,,9,2021-01-15_10h30.04.226,premce3DEU_ses-02_part-02_label-phase2,2020.1.2,Win32,60,left,1.7083,2,0.0049,0,30,30,82,1,stimuli/objects/duck01.jpg,left,old,243,,,,,,,,
,,,,,,,,9,2021-01-15_10h30.04.226,premce3DEU_ses-02_part-02_label-phase2,2020.1.2,Win32,60,left,1.29119,4,0.374145,0,31,31,55,1,stimuli/objects/dogsled.jpg,left,old,216,,,,,,,,
,,,,,,,,9,2021-01-15_10h30.04.226,premce3DEU_ses-02_part-02_label-phase2,2020.1.2,Win32,60,left,1.85241,2,0.27844,0,32,32,25,1,stimuli/objects/scooter.jpg,right,new,186,,,,,,,,
,,,,,,,,9,2021-01-15_10h30.04.226,premce3DEU_ses-02_part-02_label-phase2,2020.1.2,Win32,60,right,1.31173,2,0.743095,0,33,33,28,1,stimuli/objects/car.jpg,left,old,189,,,,,,,,
,,,,,,,,9,2021-01-15_10h30.04.226,premce3DEU_ses-02_part-02_label-phase2,2020.1.2,Win32,60,right,1.07493,1,0.283065,0,34,34,76,1,stimuli/objects/statue.jpg,right,new,237,,,,,,,,
,,,,,,,,9,2021-01-15_10h30.04.226,premce3DEU_ses-02_part-02_label-phase2,2020.1.2,Win32,60,left,0.810435,3,0.635035,0,35,35,75,1,stimuli/objects/bookshelf.jpg,left,old,236,,,,,,,,
,,,,,,,,9,2021-01-15_10h30.04.226,premce3DEU_ses-02_part-02_label-phase2,2020.1.2,Win32,60,left,1.0129,2,0.35309,0,36,36,95,1,stimuli/objects/sealion.jpg,right,new,256,,,,,,,,
,,,,,,,,9,2021-01-15_10h30.04.226,premce3DEU_ses-02_part-02_label-phase2,2020.1.2,Win32,60,left,0.80304,4,0.36246,0,37,37,142,1,stimuli/objects/lightswitch01.jpg,left,old,303,,,,,,,,
,,,,,,,,9,2021-01-15_10h30.04.226,premce3DEU_ses-02_part-02_label-phase2,2020.1.2,Win32,60,left,1.241555,3,0.21976,0,38,38,119,1,stimuli/objects/sandbarshark.jpg,right,new,280,,,,,,,,
,,,,,,,,9,2021-01-15_10h30.04.226,premce3DEU_ses-02_part-02_label-phase2,2020.1.2,Win32,60,right,0.87206,2,0.290675,0,39,39,128,1,stimuli/objects/chime.jpg,left,old,289,,,,,,,,
,,,,,,,,9,2021-01-15_10h30.04.226,premce3DEU_ses-02_part-02_label-phase2,2020.1.2,Win32,60,right,1.79935,1,0.403865,0,40,40,78,1,stimuli/objects/hockeypuck.jpg,left,old,239,,,,,,,,
,,,,,,,,9,2021-01-15_10h30.04.226,premce3DEU_ses-02_part-02_label-phase2,2020.1.2,Win32,60,left,0.596425,2,0.377025,0,41,41,30,1,stimuli/objects/key07.jpg,left,old,191,,,,,,,,
,,,,,,,,9,2021-01-15_10h30.04.226,premce3DEU_ses-02_part-02_label-phase2,2020.1.2,Win32,60,right,1.40673,3,0.44869,0,42,42,29,1,stimuli/objects/steeringwheel.jpg,right,new,190,,,,,,,,
,,,,,,,,9,2021-01-15_10h30.04.226,premce3DEU_ses-02_part-02_label-phase2,2020.1.2,Win32,60,right,1.023785,2,0.16077,0,43,43,77,1,stimuli/objects/electricguitar01.jpg,left,old,238,,,,,,,,
,,,,,,,,9,2021-01-15_10h30.04.226,premce3DEU_ses-02_part-02_label-phase2,2020.1.2,Win32,60,left,0.73496,4,0.21406,0,44,44,15,1,stimuli/objects/stool01.jpg,left,old,176,,,,,,,,
,,,,,,,,9,2021-01-15_10h30.04.226,premce3DEU_ses-02_part-02_label-phase2,2020.1.2,Win32,60,right,1.461385,2,0.01937,0,45,45,31,1,stimuli/objects/horseshoe.jpg,right,new,192,,,,,,,,
,,,,,,,,9,2021-01-15_10h30.04.226,premce3DEU_ses-02_part-02_label-phase2,2020.1.2,Win32,60,left,1.18879,1,0.11204,0,46,46,131,1,stimuli/objects/boxingglove01.jpg,right,new,292,,,,,,,,
,,,,,,,,9,2021-01-15_10h30.04.226,premce3DEU_ses-02_part-02_label-phase2,2020.1.2,Win32,60,left,0.75497,2,0.347825,0,47,47,14,1,stimuli/objects/ipad02.jpg,left,old,175,,,,,,,,
,,,,,,,,9,2021-01-15_10h30.04.226,premce3DEU_ses-02_part-02_label-phase2,2020.1.2,Win32,60,left,0.778745,4,0.385145,0,48,48,98,1,stimuli/objects/cashregister01.jpg,left,old,259,,,,,,,,
,,,,,,,,9,2021-01-15_10h30.04.226,premce3DEU_ses-02_part-02_label-phase2,2020.1.2,Win32,60,right,1.093215,2,0.347645,0,49,49,6,1,stimuli/objects/popcorn.jpg,right,new,167,,,,,,,,
,,,,,,,,9,2021-01-15_10h30.04.226,premce3DEU_ses-02_part-02_label-phase2,2020.1.2,Win32,60,left,0.696945,1,0.363785,0,50,50,41,1,stimuli/objects/zebra.jpg,left,old,202,,,,,,,,
,,,,,,,,9,2021-01-15_10h30.04.226,premce3DEU_ses-02_part-02_label-phase2,2020.1.2,Win32,60,left,0.831955,4,0.09884,0,51,51,99,1,stimuli/objects/bacon.jpg,left,old,260,,,,,,,,
,,,,,,,,9,2021-01-15_10h30.04.226,premce3DEU_ses-02_part-02_label-phase2,2020.1.2,Win32,60,right,1.135025,2,0.055005,0,52,52,97,1,stimuli/objects/greywolf.jpg,left,old,258,,,,,,,,
,,,,,,,,9,2021-01-15_10h30.04.226,premce3DEU_ses-02_part-02_label-phase2,2020.1.2,Win32,60,right,1.06486,2,0.6059,0,53,53,88,1,stimuli/objects/toilet.jpg,right,new,249,,,,,,,,
,,,,,,,,9,2021-01-15_10h30.04.226,premce3DEU_ses-02_part-02_label-phase2,2020.1.2,Win32,60,right,1.123665,3,0.35102,0,54,54,118,1,stimuli/objects/wallclock.jpg,right,new,279,,,,,,,,
,,,,,,,,9,2021-01-15_10h30.04.226,premce3DEU_ses-02_part-02_label-phase2,2020.1.2,Win32,60,left,1.04131,4,0.30349,0,55,55,19,1,stimuli/objects/zipper.jpg,right,new,180,,,,,,,,
,,,,,,,,9,2021-01-15_10h30.04.226,premce3DEU_ses-02_part-02_label-phase2,2020.1.2,Win32,60,left,3.079055,2,0.07539,0,56,56,121,1,stimuli/objects/shield02.jpg,right,new,282,,,,,,,,
,,,,,,,,9,2021-01-15_10h30.04.226,premce3DEU_ses-02_part-02_label-phase2,2020.1.2,Win32,60,left,0.878885,4,0.43573,0,57,57,155,1,stimuli/objects/fishingrod.jpg,left,old,316,,,,,,,,
,,,,,,,,9,2021-01-15_10h30.04.226,premce3DEU_ses-02_part-02_label-phase2,2020.1.2,Win32,60,left,0.76018,4,0.297205,0,58,58,115,1,stimuli/objects/witchhat.jpg,left,old,276,,,,,,,,
,,,,,,,,9,2021-01-15_10h30.04.226,premce3DEU_ses-02_part-02_label-phase2,2020.1.2,Win32,60,left,0.98467,2,0.13027,0,59,59,68,1,stimuli/objects/drumset.jpg,right,new,229,,,,,,,,
,,,,,,,,9,2021-01-15_10h30.04.226,premce3DEU_ses-02_part-02_label-phase2,2020.1.2,Win32,60,right,0.856045,2,1.52363,0,60,60,120,1,stimuli/objects/airhockeytable.jpg,right,new,281,,,,,,,,
,,,,,,,,9,2021-01-15_10h30.04.226,premce3DEU_ses-02_part-02_label-phase2,2020.1.2,Win32,60,right,2.554255,3,0.403955,0,61,61,46,1,stimuli/objects/kneepad01c.jpg,right,new,207,,,,,,,,
,,,,,,,,9,2021-01-15_10h30.04.226,premce3DEU_ses-02_part-02_label-phase2,2020.1.2,Win32,60,right,1.15303,3,0.296075,0,62,62,50,1,stimuli/objects/cowbell.jpg,right,new,211,,,,,,,,
,,,,,,,,9,2021-01-15_10h30.04.226,premce3DEU_ses-02_part-02_label-phase2,2020.1.2,Win32,60,right,1.012385,4,0.280265,0,63,63,137,1,stimuli/objects/waterfall.jpg,right,new,298,,,,,,,,
,,,,,,,,9,2021-01-15_10h30.04.226,premce3DEU_ses-02_part-02_label-phase2,2020.1.2,Win32,60,left,0.940675,2,0.326115,0,64,64,37,1,stimuli/objects/football.jpg,left,old,198,,,,,,,,
,,,,,,,,9,2021-01-15_10h30.04.226,premce3DEU_ses-02_part-02_label-phase2,2020.1.2,Win32,60,left,1.13941,3,0.26857,0,65,65,93,1,stimuli/objects/slushiemachine.jpg,right,new,254,,,,,,,,
,,,,,,,,9,2021-01-15_10h30.04.226,premce3DEU_ses-02_part-02_label-phase2,2020.1.2,Win32,60,right,1.247055,1,0.133575,0,66,66,66,1,stimuli/objects/tricornhat.jpg,right,new,227,,,,,,,,
,,,,,,,,9,2021-01-15_10h30.04.226,premce3DEU_ses-02_part-02_label-phase2,2020.1.2,Win32,60,left,0.737955,4,0.24115,0,67,67,125,1,stimuli/objects/whiteout.jpg,left,old,286,,,,,,,,
,,,,,,,,9,2021-01-15_10h30.04.226,premce3DEU_ses-02_part-02_label-phase2,2020.1.2,Win32,60,left,0.71438,4,0.11932,0,68,68,58,1,stimuli/objects/tricycle.jpg,left,old,219,,,,,,,,
,,,,,,,,9,2021-01-15_10h30.04.226,premce3DEU_ses-02_part-02_label-phase2,2020.1.2,Win32,60,left,0.913795,3,0.222955,0,69,69,140,1,stimuli/objects/treadmill.jpg,left,old,301,,,,,,,,
,,,,,,,,9,2021-01-15_10h30.04.226,premce3DEU_ses-02_part-02_label-phase2,2020.1.2,Win32,60,left,1.05054,2,0.29054,0,70,70,11,1,stimuli/objects/dolphin01.jpg,left,old,172,,,,,,,,
,,,,,,,,9,2021-01-15_10h30.04.226,premce3DEU_ses-02_part-02_label-phase2,2020.1.2,Win32,60,left,0.700545,1,0.820995,0,71,71,129,1,stimuli/objects/escalator.jpg,left,old,290,,,,,,,,
,,,,,,,,9,2021-01-15_10h30.04.226,premce3DEU_ses-02_part-02_label-phase2,2020.1.2,Win32,60,left,0.854135,3,0.341465,0,72,72,16,1,stimuli/objects/dartboard.jpg,left,old,177,,,,,,,,
,,,,,,,,9,2021-01-15_10h30.04.226,premce3DEU_ses-02_part-02_label-phase2,2020.1.2,Win32,60,left,2.10172,2,0.336575,0,73,73,5,1,stimuli/objects/wheelchair.jpg,left,old,166,,,,,,,,
,,,,,,,,9,2021-01-15_10h30.04.226,premce3DEU_ses-02_part-02_label-phase2,2020.1.2,Win32,60,left,0.71191,4,0.48909,0,74,74,151,1,stimuli/objects/jellyfish.jpg,left,old,312,,,,,,,,
,,,,,,,,9,2021-01-15_10h30.04.226,premce3DEU_ses-02_part-02_label-phase2,2020.1.2,Win32,60,right,1.179725,2,0.6129,0,75,75,74,1,stimuli/objects/turnstile.jpg,right,new,235,,,,,,,,
,,,,,,,,9,2021-01-15_10h30.04.226,premce3DEU_ses-02_part-02_label-phase2,2020.1.2,Win32,60,left,0.697355,2,0.575615,0,76,76,94,1,stimuli/objects/scorpion.jpg,right,new,255,,,,,,,,
,,,,,,,,9,2021-01-15_10h30.04.226,premce3DEU_ses-02_part-02_label-phase2,2020.1.2,Win32,60,left,1.26174,3,0.20068,0,77,77,38,1,stimuli/objects/bread.jpg,right,new,199,,,,,,,,
,,,,,,,,9,2021-01-15_10h30.04.226,premce3DEU_ses-02_part-02_label-phase2,2020.1.2,Win32,60,left,0.76119,3,0.286935,0,78,78,127,1,stimuli/objects/shelf.jpg,right,new,288,,,,,,,,
,,,,,,,,9,2021-01-15_10h30.04.226,premce3DEU_ses-02_part-02_label-phase2,2020.1.2,Win32,60,right,0.7889,2,0.379015,0,79,79,100,1,stimuli/objects/doubledoors.jpg,left,old,261,,,,,,,,
,,,,,,,,9,2021-01-15_10h30.04.226,premce3DEU_ses-02_part-02_label-phase2,2020.1.2,Win32,60,left,0.637565,4,0.316395,0,80,80,52,1,stimuli/objects/acorn.jpg,left,old,213,,,,,,,,
,,,,,,,,9,2021-01-15_10h30.04.226,premce3DEU_ses-02_part-02_label-phase2,2020.1.2,Win32,60,right,1.066235,3,0.22668,0,81,81,62,1,stimuli/objects/painting.jpg,right,new,223,,,,,,,,
,,,,,,,,9,2021-01-15_10h30.04.226,premce3DEU_ses-02_part-02_label-phase2,2020.1.2,Win32,60,left,0.607545,4,0.125925,0,82,82,111,1,stimuli/objects/jellybean.jpg,left,old,272,,,,,,,,
,,,,,,,,9,2021-01-15_10h30.04.226,premce3DEU_ses-02_part-02_label-phase2,2020.1.2,Win32,60,right,0.74375,1,0.68103,0,83,83,139,1,stimuli/objects/locomotive.jpg,left,old,300,,,,,,,,
,,,,,,,,9,2021-01-15_10h30.04.226,premce3DEU_ses-02_part-02_label-phase2,2020.1.2,Win32,60,left,1.33077,1,0.010665,0,84,84,102,1,stimuli/objects/baseballglove.jpg,left,old,263,,,,,,,,
,,,,,,,,9,2021-01-15_10h30.04.226,premce3DEU_ses-02_part-02_label-phase2,2020.1.2,Win32,60,left,0.890305,1,0.32165,0,85,85,64,1,stimuli/objects/trojanhorse.jpg,right,new,225,,,,,,,,
,,,,,,,,9,2021-01-15_10h30.04.226,premce3DEU_ses-02_part-02_label-phase2,2020.1.2,Win32,60,right,0.93751,3,0.19275,0,86,86,70,1,stimuli/objects/cormorant.jpg,right,new,231,,,,,,,,
,,,,,,,,9,2021-01-15_10h30.04.226,premce3DEU_ses-02_part-02_label-phase2,2020.1.2,Win32,60,left,1.32781,4,0.17663,0,87,87,18,1,stimuli/objects/showerhead01.jpg,left,old,179,,,,,,,,
,,,,,,,,9,2021-01-15_10h30.04.226,premce3DEU_ses-02_part-02_label-phase2,2020.1.2,Win32,60,left,1.243555,4,0.080185,0,88,88,103,1,stimuli/objects/seagull.jpg,left,old,264,,,,,,,,
,,,,,,,,9,2021-01-15_10h30.04.226,premce3DEU_ses-02_part-02_label-phase2,2020.1.2,Win32,60,left,0.79587,4,0.17695,0,89,89,56,1,stimuli/objects/toyanimal05.jpg,left,old,217,,,,,,,,
,,,,,,,,9,2021-01-15_10h30.04.226,premce3DEU_ses-02_part-02_label-phase2,2020.1.2,Win32,60,right,1.3388,2,0.506695,0,90,90,33,1,stimuli/objects/noparkingsign.jpg,right,new,194,,,,,,,,
,,,,,,,,9,2021-01-15_10h30.04.226,premce3DEU_ses-02_part-02_label-phase2,2020.1.2,Win32,60,left,0.7165,3,0.375635,0,91,91,96,1,stimuli/objects/hockeystick.jpg,left,old,257,,,,,,,,
,,,,,,,,9,2021-01-15_10h30.04.226,premce3DEU_ses-02_part-02_label-phase2,2020.1.2,Win32,60,left,0.902215,2,0.06915,0,92,92,156,1,stimuli/objects/shovel01.jpg,left,old,317,,,,,,,,
,,,,,,,,9,2021-01-15_10h30.04.226,premce3DEU_ses-02_part-02_label-phase2,2020.1.2,Win32,60,right,0.853935,3,0.25007,0,93,93,3,1,stimuli/objects/bathtub.jpg,left,old,164,,,,,,,,
,,,,,,,,9,2021-01-15_10h30.04.226,premce3DEU_ses-02_part-02_label-phase2,2020.1.2,Win32,60,left,1.09004,2,0.44557,0,94,94,40,1,stimuli/objects/beehive.jpg,right,new,201,,,,,,,,
,,,,,,,,9,2021-01-15_10h30.04.226,premce3DEU_ses-02_part-02_label-phase2,2020.1.2,Win32,60,left,0.72672,4,0.032315,0,95,95,114,1,stimuli/objects/cymbal.jpg,left,old,275,,,,,,,,
,,,,,,,,9,2021-01-15_10h30.04.226,premce3DEU_ses-02_part-02_label-phase2,2020.1.2,Win32,60,right,1.003305,2,0.300765,0,96,96,39,1,stimuli/objects/desktopcomputer.jpg,left,old,200,,,,,,,,
,,,,,,,,9,2021-01-15_10h30.04.226,premce3DEU_ses-02_part-02_label-phase2,2020.1.2,Win32,60,right,1.00089,2,0.468715,0,97,97,150,1,stimuli/objects/strap.jpg,right,new,311,,,,,,,,
,,,,,,,,9,2021-01-15_10h30.04.226,premce3DEU_ses-02_part-02_label-phase2,2020.1.2,Win32,60,left,1.034685,3,0.25214,0,98,98,133,1,stimuli/objects/kiwi03.jpg,right,new,294,,,,,,,,
,,,,,,,,9,2021-01-15_10h30.04.226,premce3DEU_ses-02_part-02_label-phase2,2020.1.2,Win32,60,left,0.742255,3,0.263895,0,99,99,101,1,stimuli/objects/microphone01.jpg,right,new,262,,,,,,,,
,,,,,,,,9,2021-01-15_10h30.04.226,premce3DEU_ses-02_part-02_label-phase2,2020.1.2,Win32,60,left,0.784075,4,0.024715,0,100,100,0,1,stimuli/objects/hulahoop.jpg,left,old,161,,,,,,,,
,,,,,,,,9,2021-01-15_10h30.04.226,premce3DEU_ses-02_part-02_label-phase2,2020.1.2,Win32,60,right,1.091015,3,0.619045,0,101,101,87,1,stimuli/objects/chipmunk.jpg,left,old,248,,,,,,,,
,,,,,,,,9,2021-01-15_10h30.04.226,premce3DEU_ses-02_part-02_label-phase2,2020.1.2,Win32,60,right,1.10452,2,0.22755,0,102,102,12,1,stimuli/objects/musicsheet.jpg,right,new,173,,,,,,,,
,,,,,,,,9,2021-01-15_10h30.04.226,premce3DEU_ses-02_part-02_label-phase2,2020.1.2,Win32,60,left,0.72708,4,0.23739,0,103,103,72,1,stimuli/objects/doghouse.jpg,left,old,233,,,,,,,,
,,,,,,,,9,2021-01-15_10h30.04.226,premce3DEU_ses-02_part-02_label-phase2,2020.1.2,Win32,60,right,0.96181,4,0.001155,0,104,104,122,1,stimuli/objects/lip.jpg,right,new,283,,,,,,,,
,,,,,,,,9,2021-01-15_10h30.04.226,premce3DEU_ses-02_part-02_label-phase2,2020.1.2,Win32,60,left,1.078795,4,0.01314,0,105,105,146,1,stimuli/objects/tie02.jpg,left,old,307,,,,,,,,
,,,,,,,,9,2021-01-15_10h30.04.226,premce3DEU_ses-02_part-02_label-phase2,2020.1.2,Win32,60,left,1.155725,2,0.3508,0,106,106,138,1,stimuli/objects/ladybug03.jpg,right,new,299,,,,,,,,
,,,,,,,,9,2021-01-15_10h30.04.226,premce3DEU_ses-02_part-02_label-phase2,2020.1.2,Win32,60,left,0.9177,3,0.01883,0,107,107,57,1,stimuli/objects/spaghetti01.jpg,right,new,218,,,,,,,,
,,,,,,,,9,2021-01-15_10h30.04.226,premce3DEU_ses-02_part-02_label-phase2,2020.1.2,Win32,60,right,1.39917,2,0.83519,0,108,108,109,1,stimuli/objects/spiderweb.jpg,right,new,270,,,,,,,,
,,,,,,,,9,2021-01-15_10h30.04.226,premce3DEU_ses-02_part-02_label-phase2,2020.1.2,Win32,60,left,1.16292,2,0.207595,0,109,109,91,1,stimuli/objects/shed02.jpg,right,new,252,,,,,,,,
,,,,,,,,9,2021-01-15_10h30.04.226,premce3DEU_ses-02_part-02_label-phase2,2020.1.2,Win32,60,right,0.85793,3,0.35654,0,110,110,143,1,stimuli/objects/taxisign.jpg,right,new,304,,,,,,,,
,,,,,,,,9,2021-01-15_10h30.04.226,premce3DEU_ses-02_part-02_label-phase2,2020.1.2,Win32,60,left,0.707215,4,0.036615,0,111,111,116,1,stimuli/objects/rollerblade.jpg,left,old,277,,,,,,,,
,,,,,,,,9,2021-01-15_10h30.04.226,premce3DEU_ses-02_part-02_label-phase2,2020.1.2,Win32,60,right,0.865545,2,0.187095,0,112,112,42,1,stimuli/objects/asianelephant.jpg,left,old,203,,,,,,,,
,,,,,,,,9,2021-01-15_10h30.04.226,premce3DEU_ses-02_part-02_label-phase2,2020.1.2,Win32,60,right,1.26567,3,0.00424,0,113,113,69,1,stimuli/objects/bumpercar.jpg,right,new,230,,,,,,,,
,,,,,,,,9,2021-01-15_10h30.04.226,premce3DEU_ses-02_part-02_label-phase2,2020.1.2,Win32,60,right,1.34213,1,0.398815,0,114,114,26,1,stimuli/objects/schoolbus.jpg,right,new,187,,,,,,,,
,,,,,,,,9,2021-01-15_10h30.04.226,premce3DEU_ses-02_part-02_label-phase2,2020.1.2,Win32,60,left,0.955745,4,0.366475,0,115,115,36,1,stimuli/objects/sandcastle.jpg,left,old,197,,,,,,,,
,,,,,,,,9,2021-01-15_10h30.04.226,premce3DEU_ses-02_part-02_label-phase2,2020.1.2,Win32,60,left,3.291455,2,0.709315,0,116,116,32,1,stimuli/objects/cross01.jpg,right,new,193,,,,,,,,
,,,,,,,,9,2021-01-15_10h30.04.226,premce3DEU_ses-02_part-02_label-phase2,2020.1.2,Win32,60,left,1.045385,4,0.157205,0,117,117,132,1,stimuli/objects/windshieldwiper02.jpg,left,old,293,,,,,,,,
,,,,,,,,9,2021-01-15_10h30.04.226,premce3DEU_ses-02_part-02_label-phase2,2020.1.2,Win32,60,left,1.315055,3,0.41184,0,118,118,80,1,stimuli/objects/floorlamp.jpg,right,new,241,,,,,,,,
,,,,,,,,9,2021-01-15_10h30.04.226,premce3DEU_ses-02_part-02_label-phase2,2020.1.2,Win32,60,right,1.035715,1,0.49397,0,119,119,35,1,stimuli/objects/xylophone.jpg,left,old,196,,,,,,,,
,,,,,,,,9,2021-01-15_10h30.04.226,premce3DEU_ses-02_part-02_label-phase2,2020.1.2,Win32,60,right,0.86967,2,0.035705,0,120,120,136,1,stimuli/objects/mouse.jpg,right,new,297,,,,,,,,
,,,,,,,,9,2021-01-15_10h30.04.226,premce3DEU_ses-02_part-02_label-phase2,2020.1.2,Win32,60,right,1.128175,3,0.148825,0,121,121,110,1,stimuli/objects/funnel.jpg,right,new,271,,,,,,,,
,,,,,,,,9,2021-01-15_10h30.04.226,premce3DEU_ses-02_part-02_label-phase2,2020.1.2,Win32,60,right,1.11185,2,0.049545,0,122,122,83,1,stimuli/objects/recyclingbin.jpg,left,old,244,,,,,,,,
,,,,,,,,9,2021-01-15_10h30.04.226,premce3DEU_ses-02_part-02_label-phase2,2020.1.2,Win32,60,right,0.883695,1,0.235285,0,123,123,67,1,stimuli/objects/snowshovel.jpg,left,old,228,,,,,,,,
,,,,,,,,9,2021-01-15_10h30.04.226,premce3DEU_ses-02_part-02_label-phase2,2020.1.2,Win32,60,left,0.665225,4,0.1437,0,124,124,49,1,stimuli/objects/surfboard.jpg,left,old,210,,,,,,,,
,,,,,,,,9,2021-01-15_10h30.04.226,premce3DEU_ses-02_part-02_label-phase2,2020.1.2,Win32,60,left,1.02308,3,0.00098,0,125,125,159,1,stimuli/objects/footballhelmet.jpg,left,old,320,,,,,,,,
,,,,,,,,9,2021-01-15_10h30.04.226,premce3DEU_ses-02_part-02_label-phase2,2020.1.2,Win32,60,right,0.89444,2,0.24014,0,126,126,81,1,stimuli/objects/raccoon.jpg,right,new,242,,,,,,,,
,,,,,,,,9,2021-01-15_10h30.04.226,premce3DEU_ses-02_part-02_label-phase2,2020.1.2,Win32,60,left,0.91901,3,0.001305,0,127,127,79,1,stimuli/objects/polarbear.jpg,left,old,240,,,,,,,,
,,,,,,,,9,2021-01-15_10h30.04.226,premce3DEU_ses-02_part-02_label-phase2,2020.1.2,Win32,60,left,0.94486,1,0.271105,0,128,128,124,1,stimuli/objects/swing.jpg,right,new,285,,,,,,,,
,,,,,,,,9,2021-01-15_10h30.04.226,premce3DEU_ses-02_part-02_label-phase2,2020.1.2,Win32,60,right,1.00004,2,0.2652,0,129,129,27,1,stimuli/objects/tombstone.jpg,right,new,188,,,,,,,,
,,,,,,,,9,2021-01-15_10h30.04.226,premce3DEU_ses-02_part-02_label-phase2,2020.1.2,Win32,60,left,1.58022,1,0.002,0,130,130,144,1,stimuli/objects/walkietalkie.jpg,right,new,305,,,,,,,,
,,,,,,,,9,2021-01-15_10h30.04.226,premce3DEU_ses-02_part-02_label-phase2,2020.1.2,Win32,60,left,1.5996,4,0.0662,0,131,131,86,1,stimuli/objects/trafficlight.jpg,left,old,247,,,,,,,,
,,,,,,,,9,2021-01-15_10h30.04.226,premce3DEU_ses-02_part-02_label-phase2,2020.1.2,Win32,60,left,1.035555,2,0.002835,0,132,132,71,1,stimuli/objects/tennisracket.jpg,right,new,232,,,,,,,,
,,,,,,,,9,2021-01-15_10h30.04.226,premce3DEU_ses-02_part-02_label-phase2,2020.1.2,Win32,60,left,0.6975,3,0.28417,0,133,133,105,1,stimuli/objects/beerbottle.jpg,left,old,266,,,,,,,,
,,,,,,,,9,2021-01-15_10h30.04.226,premce3DEU_ses-02_part-02_label-phase2,2020.1.2,Win32,60,left,0.69299,4,0.12731,0,134,134,117,1,stimuli/objects/fingerprint.jpg,left,old,278,,,,,,,,
,,,,,,,,9,2021-01-15_10h30.04.226,premce3DEU_ses-02_part-02_label-phase2,2020.1.2,Win32,60,left,1.05058,4,0.18986,0,135,135,147,1,stimuli/objects/bleachers.jpg,left,old,308,,,,,,,,
,,,,,,,,9,2021-01-15_10h30.04.226,premce3DEU_ses-02_part-02_label-phase2,2020.1.2,Win32,60,left,0.79194,4,0.13698,0,136,136,112,1,stimuli/objects/hotdog.jpg,left,old,273,,,,,,,,
,,,,,,,,9,2021-01-15_10h30.04.226,premce3DEU_ses-02_part-02_label-phase2,2020.1.2,Win32,60,right,1.617175,2,0.00135,0,137,137,61,1,stimuli/objects/parrot01.jpg,right,new,222,,,,,,,,
,,,,,,,,9,2021-01-15_10h30.04.226,premce3DEU_ses-02_part-02_label-phase2,2020.1.2,Win32,60,right,2.321705,2,0.001135,0,138,138,51,1,stimuli/objects/kangaroo01.jpg,right,new,212,,,,,,,,
,,,,,,,,9,2021-01-15_10h30.04.226,premce3DEU_ses-02_part-02_label-phase2,2020.1.2,Win32,60,right,1.29234,2,0.356545,0,139,139,106,1,stimuli/objects/squirrel.jpg,right,new,267,,,,,,,,
,,,,,,,,9,2021-01-15_10h30.04.226,premce3DEU_ses-02_part-02_label-phase2,2020.1.2,Win32,60,left,1.36773,1,0.37752,0,140,140,43,1,stimuli/objects/poolcue.jpg,right,new,204,,,,,,,,
,,,,,,,,9,2021-01-15_10h30.04.226,premce3DEU_ses-02_part-02_label-phase2,2020.1.2,Win32,60,left,0.70186,4,0.3721,0,141,141,73,1,stimuli/objects/barrel01.jpg,left,old,234,,,,,,,,
,,,,,,,,9,2021-01-15_10h30.04.226,premce3DEU_ses-02_part-02_label-phase2,2020.1.2,Win32,60,left,0.742015,4,0.33331,0,142,142,108,1,stimuli/objects/cork02.jpg,left,old,269,,,,,,,,
,,,,,,,,9,2021-01-15_10h30.04.226,premce3DEU_ses-02_part-02_label-phase2,2020.1.2,Win32,60,left,2.083625,2,0.854095,0,143,143,17,1,stimuli/objects/saltshaker03a.jpg,right,new,178,,,,,,,,
,,,,,,,,9,2021-01-15_10h30.04.226,premce3DEU_ses-02_part-02_label-phase2,2020.1.2,Win32,60,left,0.937295,1,0.519315,0,144,144,152,1,stimuli/objects/harmonica.jpg,right,new,313,,,,,,,,
,,,,,,,,9,2021-01-15_10h30.04.226,premce3DEU_ses-02_part-02_label-phase2,2020.1.2,Win32,60,left,1.421485,4,0.36446,0,145,145,9,1,stimuli/objects/flag.jpg,right,new,170,,,,,,,,
,,,,,,,,9,2021-01-15_10h30.04.226,premce3DEU_ses-02_part-02_label-phase2,2020.1.2,Win32,60,right,0.840585,3,0.415,0,146,146,24,1,stimuli/objects/jaguar.jpg,left,old,185,,,,,,,,
,,,,,,,,9,2021-01-15_10h30.04.226,premce3DEU_ses-02_part-02_label-phase2,2020.1.2,Win32,60,left,1.04761,2,0.245505,0,147,147,107,1,stimuli/objects/tambourine03.jpg,right,new,268,,,,,,,,
,,,,,,,,9,2021-01-15_10h30.04.226,premce3DEU_ses-02_part-02_label-phase2,2020.1.2,Win32,60,right,1.101025,2,0.228015,0,148,148,149,1,stimuli/objects/mortarandpestle.jpg,right,new,310,,,,,,,,
,,,,,,,,9,2021-01-15_10h30.04.226,premce3DEU_ses-02_part-02_label-phase2,2020.1.2,Win32,60,left,0.937655,4,0.02615,0,149,149,47,1,stimuli/objects/candycane01a.jpg,left,old,208,,,,,,,,
,,,,,,,,9,2021-01-15_10h30.04.226,premce3DEU_ses-02_part-02_label-phase2,2020.1.2,Win32,60,right,1.65772,2,0.320925,0,150,150,53,1,stimuli/objects/parachute.jpg,right,new,214,,,,,,,,
,,,,,,,,9,2021-01-15_10h30.04.226,premce3DEU_ses-02_part-02_label-phase2,2020.1.2,Win32,60,right,0.944045,3,0.181,0,151,151,54,1,stimuli/objects/acousticguitar02.jpg,right,new,215,,,,,,,,
,,,,,,,,9,2021-01-15_10h30.04.226,premce3DEU_ses-02_part-02_label-phase2,2020.1.2,Win32,60,left,1.66525,3,0.27115,0,152,152,134,1,stimuli/objects/bikelock.jpg,right,new,295,,,,,,,,
,,,,,,,,9,2021-01-15_10h30.04.226,premce3DEU_ses-02_part-02_label-phase2,2020.1.2,Win32,60,left,0.9571,2,0.12738,0,153,153,60,1,stimuli/objects/hammerheadshark.jpg,right,new,221,,,,,,,,
,,,,,,,,9,2021-01-15_10h30.04.226,premce3DEU_ses-02_part-02_label-phase2,2020.1.2,Win32,60,left,0.743165,2,0.304805,0,154,154,48,1,stimuli/objects/rubikcube.jpg,right,new,209,,,,,,,,
,,,,,,,,9,2021-01-15_10h30.04.226,premce3DEU_ses-02_part-02_label-phase2,2020.1.2,Win32,60,left,0.865995,4,0.28301,0,155,155,10,1,stimuli/objects/spicerack.jpg,left,old,171,,,,,,,,
,,,,,,,,9,2021-01-15_10h30.04.226,premce3DEU_ses-02_part-02_label-phase2,2020.1.2,Win32,60,right,1.955725,2,0.15483,0,156,156,104,1,stimuli/objects/rockingchair.jpg,left,old,265,,,,,,,,
,,,,,,,,9,2021-01-15_10h30.04.226,premce3DEU_ses-02_part-02_label-phase2,2020.1.2,Win32,60,right,0.934435,4,0.21706,0,157,157,135,1,stimuli/objects/penguin.jpg,right,new,296,,,,,,,,
,,,,,,,,9,2021-01-15_10h30.04.226,premce3DEU_ses-02_part-02_label-phase2,2020.1.2,Win32,60,left,0.78617,4,0.14701,0,158,158,126,1,stimuli/objects/birdfeeder.jpg,left,old,287,,,,,,,,
,,,,,,,,9,2021-01-15_10h30.04.226,premce3DEU_ses-02_part-02_label-phase2,2020.1.2,Win32,60,left,0.94986,4,0.222475,0,159,159,1,1,stimuli/objects/tent.jpg,left,old,162,,,,,,,,
,,,,,,,,9,2021-01-15_10h30.04.226,premce3DEU_ses-02_part-02_label-phase2,2020.1.2,Win32,60,,,,,,,,,,,,,,space,4.06711,0,1,1,1,1,ImagesforRecog2.csv
