"SubNum","butterfly","response","respFlower","corrFlower","accuracy","cumAcc","RT","trialNum","listN","NfromChange","befAft","befAft2","trialCond","objfile"
"2","white_butterfly","3","yellow_flower","blue_flower","0","0","0.69177","1","0","1","0","0","1","toolbox02.jpg"
"2","white_butterfly","5","green_flower","blue_flower","0","0","1.300895","2","0","2","0","0","1","firehydrant.jpg"
"2","grey_butterfly","4","green_flower","red_flower","0","0","1.38265","3","0","3","0","0","1","shed02.jpg"
"2","grey_butterfly","4","red_flower","red_flower","1","0.25","0.705845","4","0","4","0","0","1","toucan.jpg"
"2","white_butterfly","2","yellow_flower","blue_flower","0","0.2","0.937415","5","0","5","0","0","1","skunk.jpg"
"2","white_butterfly","5","blue_flower","blue_flower","1","0.333333333333333","1.841375","6","0","6","0","1","1","motorcycle.jpg"
"2","grey_butterfly","3","green_flower","red_flower","0","0.285714285714286","0.668035","7","0","7","0","1","1","flipflop01b.jpg"
"2","grey_butterfly","1",NA,"red_flower","0","0.25",NA,"8","0","8","0","1","1","corn02.jpg"
"2","white_butterfly","2","blue_flower","blue_flower","1","0.333333333333333","0.535065","9","0","9","1","1","1","birdfeeder.jpg"
"2","grey_butterfly","4","green_flower","red_flower","0","0.3","0.686855","10","0","10","1","1","1","marble.jpg"
"2","grey_butterfly","5","blue_flower","red_flower","0","0.272727272727273","1.40441","11","0","11","1","2","1","shelf.jpg"
"2","white_butterfly","4","blue_flower","blue_flower","1","0.333333333333333","0.535765","12","0","12","1","2","1","foosballtable.jpg"
"2","white_butterfly","4","blue_flower","blue_flower","1","0.384615384615385","1.227495","13","0","13","1","2","1","tennisracket.jpg"
"2","grey_butterfly","3","red_flower","red_flower","1","0.428571428571429","1.59228","14","0","14","1","2","1","wheat.jpg"
"2","white_butterfly","4","blue_flower","blue_flower","1","0.466666666666667","1.43778","15","0","15","1","2","1","tire.jpg"
"2","white_butterfly","4","yellow_flower","blue_flower","0","0","0.89249","16","2","1","0","0","1","handbrush02.jpg"
"2","white_butterfly","4","green_flower","blue_flower","0","0","1.00008","17","2","2","0","0","1","treadmill.jpg"
"2","grey_butterfly","2","red_flower","red_flower","1","0.333333333333333","1.709635","18","2","3","0","0","1","shower.jpg"
"2","white_butterfly","4","blue_flower","blue_flower","1","0.5","0.429325","19","2","4","0","0","1","skateboard.jpg"
"2","white_butterfly","3","blue_flower","blue_flower","1","0.6","0.550235","20","2","5","0","0","1","barrel01.jpg"
"2","white_butterfly","4","blue_flower","blue_flower","1","0.666666666666667","0.936505","21","2","6","0","0","1","xylophone.jpg"
"2","grey_butterfly","5","red_flower","red_flower","1","0.714285714285714","0.984575","22","2","7","0","0","1","forklift.jpg"
"2","grey_butterfly","4","red_flower","red_flower","1","0.75","0.50491","23","2","8","0","0","1","scalpel.jpg"
"2","white_butterfly","5","blue_flower","blue_flower","1","0.777777777777778","0.67293","24","2","9","0","0","1","sailboat.jpg"
"2","white_butterfly","2","blue_flower","blue_flower","1","0.8","1.51986","25","2","10","0","0","1","snowman.jpg"
"2","grey_butterfly","2","red_flower","red_flower","1","0.818181818181818","0.72473","26","2","11","0","0","1","stool01.jpg"
"2","grey_butterfly","3","red_flower","red_flower","1","0.833333333333333","1.93107","27","2","12","0","0","1","butterfly1.jpg"
"2","white_butterfly","3","blue_flower","blue_flower","1","0.846153846153846","1.63175","28","2","13","0","1","1","desktopcomputer.jpg"
"2","white_butterfly","5","red_flower","blue_flower","0","0.785714285714286","1.459175","29","2","14","0","1","1","triangle.jpg"
"2","white_butterfly","5","blue_flower","blue_flower","1","0.8","0.878775","30","2","15","0","1","1","dartboard.jpg"
"2","grey_butterfly","5","blue_flower","red_flower","0","0.75","0.782865","31","2","16","0","1","1","electricguitar01.jpg"
"2","grey_butterfly","2","red_flower","red_flower","1","0.764705882352941","1.115775","32","2","17","0","1","1","doubledoors.jpg"
"2","grey_butterfly","5","red_flower","red_flower","1","0.777777777777778","0.55015","33","2","18","0","1","1","waterfountain02.jpg"
"2","grey_butterfly","3","red_flower","red_flower","1","0.789473684210526","0.573515","34","2","19","1","1","1","skiboot01a.jpg"
"2","grey_butterfly","3","red_flower","red_flower","1","0.8","0.5883","35","2","20","1","1","1","rockingchair.jpg"
"2","grey_butterfly","4","red_flower","red_flower","1","0.80952380952381","1.24097","36","2","21","1","1","1","trophy01.jpg"
"2","grey_butterfly","3","red_flower","red_flower","1","0.818181818181818","0.988135","37","2","22","1","1","1","fridge.jpg"
"2","white_butterfly","3","blue_flower","blue_flower","1","0.826086956521739","0.48223","38","2","23","1","1","1","filingcabinet.jpg"
"2","grey_butterfly","5","red_flower","red_flower","1","0.833333333333333","1.285795","39","2","24","1","1","1","crown.jpg"
"2","white_butterfly","4","blue_flower","blue_flower","1","0.84","0.433035","40","2","25","1","2","1","file.jpg"
"2","grey_butterfly","5","red_flower","red_flower","1","0.846153846153846","0.870485","41","2","26","1","2","1","blender.jpg"
"2","white_butterfly","3","blue_flower","blue_flower","1","0.851851851851852","0.61911","42","2","27","1","2","1","sandcastle.jpg"
"2","grey_butterfly","3","red_flower","red_flower","1","0.857142857142857","0.616875","43","2","28","1","2","1","crab01.jpg"
"2","white_butterfly","4","blue_flower","blue_flower","1","0.862068965517241","0.998295","44","2","29","1","2","1","butterfly1.jpg"
"2","grey_butterfly","4","red_flower","red_flower","1","0.866666666666667","0.878635","45","2","30","1","2","1","doghouse.jpg"
"2","white_butterfly","3","blue_flower","blue_flower","1","0.870967741935484","1.05154","46","2","31","1","2","1","chime.jpg"
"2","white_butterfly","2","blue_flower","blue_flower","1","0.875","0.874645","47","2","32","1","2","1","contactlens.jpg"
"2","white_butterfly","4","blue_flower","blue_flower","1","0.878787878787879","1.315535","48","2","33","1","2","1","snowglobe.jpg"
"2","grey_butterfly","5","red_flower","red_flower","1","0.882352941176471","0.584235","49","2","34","1","2","1","beerbottle.jpg"
"2","grey_butterfly","4","red_flower","red_flower","1","0.885714285714286","1.285815","50","2","35","1","2","1","salmon.jpg"
"2","white_butterfly","5","blue_flower","blue_flower","1","0.888888888888889","1.362765","51","2","36","1","2","1","microwave.jpg"
"2","white_butterfly","5","blue_flower","green_flower","0","0.864864864864865","0.62419","52","3","1","0","0","1","whiteout.jpg"
"2","white_butterfly","3","red_flower","green_flower","0","0.842105263157895","1.803355","53","3","2","0","0","1","dromedary.jpg"
"2","grey_butterfly","4","red_flower","yellow_flower","0","0.82051282051282","1.698595","54","3","3","0","0","1","cruiseship.jpg"
"2","white_butterfly","5","red_flower","green_flower","0","0.8","1.9447","55","3","4","0","0","1","rollerblade.jpg"
"2","grey_butterfly","5","red_flower","yellow_flower","0","0.780487804878049","0.658165","56","3","5","0","0","1","windshieldwiper02.jpg"
"2","white_butterfly","3","blue_flower","green_flower","0","0.761904761904762","0.46175","57","3","6","0","0","1","candycane01a.jpg"
"2","white_butterfly","4","red_flower","green_flower","0","0.744186046511628","0.790395","58","3","7","0","0","1","canoepaddle02.jpg"
"2","grey_butterfly","2","red_flower","yellow_flower","0","0.727272727272727","1.33789","59","3","8","0","0","1","hotdog.jpg"
"2","white_butterfly","3","green_flower","green_flower","1","0.733333333333333","1.0858","60","3","9","0","0","1","cactus.jpg"
"2","grey_butterfly","4","green_flower","yellow_flower","0","0.717391304347826","1.10519","61","3","10","0","0","1","bookshelf.jpg"
"2","white_butterfly","2","green_flower","green_flower","1","0.723404255319149","0.651745","62","3","11","0","0","1","bathtub.jpg"
"2","grey_butterfly","3","yellow_flower","yellow_flower","1","0.729166666666667","0.67933","63","3","12","0","0","1","spicerack.jpg"
"2","grey_butterfly","3","yellow_flower","yellow_flower","1","0.73469387755102","0.601925","64","3","13","0","1","1","stepladder.jpg"
"2","grey_butterfly","4","yellow_flower","yellow_flower","1","0.74","0.51113","65","3","14","0","1","1","snowshovel.jpg"
"2","white_butterfly","3","green_flower","green_flower","1","0.745098039215686","1.296935","66","3","15","0","1","1","seaturtle.jpg"
"2","white_butterfly","3","green_flower","green_flower","1","0.75","0.50778","67","3","16","0","1","1","winniethepooh.jpg"
"2","white_butterfly","3","green_flower","green_flower","1","0.754716981132076","0.71595","68","3","17","0","1","1","witchhat.jpg"
"2","grey_butterfly","3","yellow_flower","yellow_flower","1","0.759259259259259","1.492595","69","3","18","0","1","1","granolabar01.jpg"
"2","white_butterfly","5","green_flower","green_flower","1","0.763636363636364","0.829085","70","3","19","1","1","1","shovel01.jpg"
"2","white_butterfly","2","green_flower","green_flower","1","0.767857142857143","0.564905","71","3","20","1","1","1","fluorescentlightbulb.jpg"
"2","grey_butterfly","4","green_flower","yellow_flower","0","0.754385964912281","1.48681","72","3","21","1","1","1","urinal.jpg"
"2","grey_butterfly","2","yellow_flower","yellow_flower","1","0.758620689655172","0.927935","73","3","22","1","1","1","frisbee.jpg"
"2","grey_butterfly","3","green_flower","yellow_flower","0","0.745762711864407","1.820445","74","3","23","1","1","1","porcupine.jpg"
"2","white_butterfly","3","green_flower","green_flower","1","0.75","0.623595","75","3","24","1","1","1","showerhead01.jpg"
"2","white_butterfly","2","green_flower","green_flower","1","0.754098360655738","0.67093","76","3","25","1","2","1","handheldtelescope.jpg"
"2","grey_butterfly","5","yellow_flower","yellow_flower","1","0.758064516129032","0.885565","77","3","26","1","2","1","acorn.jpg"
"2","white_butterfly","4","yellow_flower","green_flower","0","0.746031746031746","2.05171","78","3","27","1","2","1","polarbear.jpg"
"2","white_butterfly","4","green_flower","green_flower","1","0.75","1.99623","79","3","28","1","2","1","pirateflag.jpg"
"2","grey_butterfly","2","yellow_flower","yellow_flower","1","0.753846153846154","0.533265","80","3","29","1","2","1","seagull.jpg"
"2","white_butterfly","2","yellow_flower","green_flower","0","0.742424242424242","1.01428","81","3","30","1","2","1","toyanimal05.jpg"
"2","grey_butterfly","4","yellow_flower","yellow_flower","1","0.746268656716418","1.375635","82","3","31","1","2","1","greywolf.jpg"
"2","grey_butterfly","5","green_flower","yellow_flower","0","0.735294117647059","1.979045","83","3","32","1","2","1","butterfly3.jpg"
"2","grey_butterfly","4","yellow_flower","yellow_flower","1","0.739130434782609","0.90394","84","3","33","1","2","1","surfboard.jpg"
"2","white_butterfly","2","green_flower","green_flower","1","0.742857142857143","0.53573","85","3","34","1","2","1","donut.jpg"
"2","grey_butterfly","5","yellow_flower","yellow_flower","1","0.746478873239437","1.4628","86","3","35","1","2","1","apron.jpg"
"2","grey_butterfly","4","yellow_flower","yellow_flower","1","0.75","1.26608","87","3","36","1","2","1","footballhelmet.jpg"
"2","white_butterfly","2","green_flower","yellow_flower","0","0.73972602739726","1.30201","88","4","1","0","0","1","christmaslights.jpg"
"2","grey_butterfly","5","yellow_flower","blue_flower","0","0.72972972972973","0.98994","89","4","2","0","0","1","zebra.jpg"
"2","grey_butterfly","2","yellow_flower","blue_flower","0","0.72","1.300615","90","4","3","0","0","1","giraffe.jpg"
"2","white_butterfly","5","red_flower","yellow_flower","0","0.710526315789474","1.59118","91","4","4","0","0","1","mirror02.jpg"
"2","white_butterfly","2","yellow_flower","yellow_flower","1","0.714285714285714","0.47343","92","4","5","0","0","1","recyclingbin.jpg"
"2","white_butterfly","2","yellow_flower","yellow_flower","1","0.717948717948718","0.7477","93","4","6","0","0","1","fishingrod.jpg"
"2","white_butterfly","1",NA,"yellow_flower","0","0.708860759493671",NA,"94","4","7","0","0","1","barn.jpg"
"2","grey_butterfly","3","blue_flower","blue_flower","1","0.7125","0.68313","95","4","8","0","0","1","lightswitch01.jpg"
"2","grey_butterfly","2","blue_flower","blue_flower","1","0.716049382716049","0.594555","96","4","9","0","0","1","birdfeeder.jpg"
"2","white_butterfly","4","blue_flower","yellow_flower","0","0.707317073170732","1.141275","97","4","10","0","0","1","cannon.jpg"
"2","grey_butterfly","3","blue_flower","blue_flower","1","0.710843373493976","1.21427","98","4","11","0","0","1","coffeemachine.jpg"
"2","white_butterfly","4","yellow_flower","yellow_flower","1","0.714285714285714","0.54188","99","4","12","0","0","1","treestump.jpg"
"2","grey_butterfly","4","yellow_flower","blue_flower","0","0.705882352941177","1.410895","100","4","13","0","1","1","panda.jpg"
"2","grey_butterfly","5","blue_flower","blue_flower","1","0.709302325581395","0.999305","101","4","14","0","1","1","butterfly2.jpg"
"2","grey_butterfly","5","green_flower","blue_flower","0","0.701149425287356","1.430965","102","4","15","0","1","1","cymbal.jpg"
"2","white_butterfly","5","red_flower","yellow_flower","0","0.693181818181818","0.963465","103","4","16","0","1","1","baseballglove.jpg"
"2","grey_butterfly","2","green_flower","blue_flower","0","0.685393258426966","0.48198","104","4","17","0","1","1","weddingcake.jpg"
"2","grey_butterfly","4","yellow_flower","blue_flower","0","0.677777777777778","2.080305","105","4","18","0","1","1","key07.jpg"
"2","white_butterfly","4","yellow_flower","yellow_flower","1","0.681318681318681","1.288975","106","4","19","1","1","1","tricycle.jpg"
"2","grey_butterfly","3","blue_flower","blue_flower","1","0.684782608695652","0.65366","107","4","20","1","1","1","escalator.jpg"
"2","grey_butterfly","5","red_flower","blue_flower","0","0.67741935483871","0.8949","108","4","21","1","1","1","volleyball.jpg"
"2","grey_butterfly","4","yellow_flower","blue_flower","0","0.670212765957447","0.937155","109","4","22","1","1","1","football.jpg"
"2","white_butterfly","2","blue_flower","yellow_flower","0","0.663157894736842","0.7985","110","4","23","1","1","1","windturbine.jpg"
"2","white_butterfly","5","yellow_flower","yellow_flower","1","0.666666666666667","0.41246","111","4","24","1","1","1","locomotive.jpg"
"2","white_butterfly","3","yellow_flower","yellow_flower","1","0.670103092783505","1.045065","112","4","25","1","2","1","bowlingpin.jpg"
"2","white_butterfly","3","blue_flower","yellow_flower","0","0.663265306122449","0.58089","113","4","26","1","2","1","musicstand.jpg"
"2","white_butterfly","5","green_flower","yellow_flower","0","0.656565656565657","0.58993","114","4","27","1","2","1","car.jpg"
"2","white_butterfly","3","yellow_flower","yellow_flower","1","0.66","1.3527","115","4","28","1","2","1","dreamcatcher.jpg"
"2","grey_butterfly","5","blue_flower","blue_flower","1","0.663366336633663","0.80972","116","4","29","1","2","1","table01.jpg"
"2","white_butterfly","3","yellow_flower","yellow_flower","1","0.666666666666667","2.22833","117","4","30","1","2","1","jaguar.jpg"
"2","white_butterfly","3","yellow_flower","yellow_flower","1","0.669902912621359","0.5662","118","4","31","1","2","1","butterfly3.jpg"
"2","grey_butterfly","4","blue_flower","blue_flower","1","0.673076923076923","0.5278","119","4","32","1","2","1","skihelmet01.jpg"
"2","white_butterfly","3","blue_flower","yellow_flower","0","0.666666666666667","0.91649","120","4","33","1","2","1","bleachers.jpg"
"2","grey_butterfly","4","blue_flower","blue_flower","1","0.669811320754717","0.64138","121","4","34","1","2","1","jackrabbit.jpg"
"2","grey_butterfly","3","blue_flower","blue_flower","1","0.672897196261682","0.40585","122","4","35","1","2","1","hulahoop.jpg"
"2","grey_butterfly","2","blue_flower","blue_flower","1","0.675925925925926","0.656225","123","4","36","1","2","1","dogsled.jpg"
"2","white_butterfly","2","blue_flower","red_flower","0","0.669724770642202","0.967735","124","5","1","0","0","1","trombone.jpg"
"2","white_butterfly","4","blue_flower","red_flower","0","0.663636363636364","0.64404","125","5","2","0","0","1","trafficlight.jpg"
"2","white_butterfly","2","red_flower","red_flower","1","0.666666666666667","0.40177","126","5","3","0","0","1","aquarium.jpg"
"2","white_butterfly","4","red_flower","red_flower","1","0.669642857142857","0.414385","127","5","4","0","0","1","dolphin01.jpg"
"2","white_butterfly","2","red_flower","red_flower","1","0.672566371681416","0.867525","128","5","5","0","0","1","battleaxe.jpg"
"2","white_butterfly","4","red_flower","red_flower","1","0.675438596491228","0.735255","129","5","6","0","0","1","cookingpot.jpg"
"2","white_butterfly","2","red_flower","red_flower","1","0.678260869565217","0.729045","130","5","7","0","0","1","star.jpg"
"2","grey_butterfly","4","red_flower","green_flower","0","0.672413793103448","0.49439","131","5","8","0","0","1","bacon.jpg"
"2","grey_butterfly","3","green_flower","green_flower","1","0.675213675213675","0.49395","132","5","9","0","0","1","golfball.jpg"
"2","grey_butterfly","5","green_flower","green_flower","1","0.677966101694915","0.80376","133","5","10","0","0","1","cuttlefish.jpg"
"2","grey_butterfly","2","green_flower","green_flower","1","0.680672268907563","1.12459","134","5","11","0","0","1","tent.jpg"
"2","white_butterfly","2","red_flower","red_flower","1","0.683333333333333","0.84781","135","5","12","0","0","1","chipmunk.jpg"
"2","grey_butterfly","5","red_flower","green_flower","0","0.677685950413223","1.465835","136","5","13","0","1","1","artichoke01b.jpg"
"2","grey_butterfly","3","green_flower","green_flower","1","0.680327868852459","0.783045","137","5","14","0","1","1","ipad02.jpg"
"2","grey_butterfly","2","red_flower","green_flower","0","0.67479674796748","1.029815","138","5","15","0","1","1","cloud.jpg"
"2","white_butterfly","5","red_flower","red_flower","1","0.67741935483871","0.53785","139","5","16","0","1","1","butterfly4.jpg"
"2","grey_butterfly","4","green_flower","green_flower","1","0.68","0.57826","140","5","17","0","1","1","lionstatue.jpg"
"2","white_butterfly","5","red_flower","red_flower","1","0.682539682539683","0.570575","141","5","18","0","1","1","ironingboard01.jpg"
"2","grey_butterfly","3","red_flower","green_flower","0","0.677165354330709","0.92147","142","5","19","1","1","1","cork02.jpg"
"2","white_butterfly","4","red_flower","red_flower","1","0.6796875","0.63404","143","5","20","1","1","1","hockeystick.jpg"
"2","grey_butterfly","3","red_flower","green_flower","0","0.674418604651163","1.846125","144","5","21","1","1","1","asianelephant.jpg"
"2","white_butterfly","5","red_flower","red_flower","1","0.676923076923077","0.46506","145","5","22","1","1","1","jeans01.jpg"
"2","grey_butterfly","4","blue_flower","green_flower","0","0.67175572519084","0.496185","146","5","23","1","1","1","hockeypuck.jpg"
"2","grey_butterfly","2","green_flower","green_flower","1","0.674242424242424","1.40526","147","5","24","1","1","1","lantern03.jpg"
"2","grey_butterfly","2","green_flower","green_flower","1","0.676691729323308","0.915635","148","5","25","1","2","1","monarchbutterfly.jpg"
"2","grey_butterfly","3","green_flower","green_flower","1","0.67910447761194","1.775295","149","5","26","1","2","1","tulip02.jpg"
"2","white_butterfly","3","red_flower","red_flower","1","0.681481481481481","0.597195","150","5","27","1","2","1","jellyfish.jpg"
"2","grey_butterfly","5","green_flower","green_flower","1","0.683823529411765","0.9263","151","5","28","1","2","1","callbell.jpg"
"2","white_butterfly","4","yellow_flower","red_flower","0","0.678832116788321","0.627615","152","5","29","1","2","1","basketball01.jpg"
"2","grey_butterfly","4","green_flower","green_flower","1","0.681159420289855","0.88368","153","5","30","1","2","1","jokercard.jpg"
"2","white_butterfly","3","red_flower","red_flower","1","0.683453237410072","0.80648","154","5","31","1","2","1","soccerball.jpg"
"2","white_butterfly","4","green_flower","red_flower","0","0.678571428571429","0.89003","155","5","32","1","2","1","butterfly2.jpg"
"2","grey_butterfly","2","green_flower","green_flower","1","0.680851063829787","0.863775","156","5","33","1","2","1","eyepatch.jpg"
"2","white_butterfly","3","red_flower","red_flower","1","0.683098591549296","1.72846","157","5","34","1","2","1","cashregister01.jpg"
"2","white_butterfly","2","green_flower","red_flower","0","0.678321678321678","0.887335","158","5","35","1","2","1","balcony02.jpg"
"2","grey_butterfly","3","green_flower","green_flower","1","0.680555555555556","1.71096","159","5","36","1","2","1","fingerprint.jpg"
"3","white_butterfly","5","red_flower","blue_flower","0","0","2.06","1","0","1","0","0","1","toolbox02.jpg"
"3","grey_butterfly","2","blue_flower","red_flower","0","0","0.778","2","0","2","0","0","1","wheat.jpg"
"3","grey_butterfly","5","red_flower","red_flower","1","0.333333333333333","1.135","3","0","3","0","0","1","corn02.jpg"
"3","grey_butterfly","5","red_flower","red_flower","1","0.5","0.854","4","0","4","0","0","1","marble.jpg"
"3","white_butterfly","4","green_flower","blue_flower","0","0.4","0.63","5","0","5","0","0","1","skunk.jpg"
"3","white_butterfly","2","yellow_flower","blue_flower","0","0.333333333333333","0.957","6","0","6","0","1","1","tire.jpg"
"3","white_butterfly","4","blue_flower","blue_flower","1","0.428571428571429","1.559","7","0","7","0","1","1","tennisracket.jpg"
"3","white_butterfly","4","blue_flower","blue_flower","1","0.5","0.499","8","0","8","0","1","1","foosballtable.jpg"
"3","white_butterfly","2","blue_flower","blue_flower","1","0.555555555555556","0.595","9","0","9","1","1","1","birdfeeder.jpg"
"3","grey_butterfly","5","red_flower","red_flower","1","0.6","0.752","10","0","10","1","1","1","shed02.jpg"
"3","white_butterfly","2","blue_flower","blue_flower","1","0.636363636363636","1.646","11","0","11","1","2","1","firehydrant.jpg"
"3","white_butterfly","5","blue_flower","blue_flower","1","0.666666666666667","1.214","12","0","12","1","2","1","motorcycle.jpg"
"3","grey_butterfly","3","red_flower","red_flower","1","0.692307692307692","0.744","13","0","13","1","2","1","shelf.jpg"
"3","grey_butterfly","4","red_flower","red_flower","1","0.714285714285714","2.007","14","0","14","1","2","1","flipflop01b.jpg"
"3","grey_butterfly","4","red_flower","red_flower","1","0.733333333333333","0.593","15","0","15","1","2","1","toucan.jpg"
"3","white_butterfly","3","blue_flower","blue_flower","1","1","1.24","16","2","1","0","0","1","treestump.jpg"
"3","white_butterfly","5","red_flower","blue_flower","0","0.5","0.906","17","2","2","0","0","1","spicerack.jpg"
"3","grey_butterfly","2","red_flower","red_flower","1","0.666666666666667","0.996","18","2","3","0","0","1","football.jpg"
"3","white_butterfly","4","blue_flower","blue_flower","1","0.75","0.627","19","2","4","0","0","1","bowlingpin.jpg"
"3","white_butterfly","3","blue_flower","blue_flower","1","0.8","0.487","20","2","5","0","0","1","beerbottle.jpg"
"3","white_butterfly","4","blue_flower","blue_flower","1","0.833333333333333","0.493","21","2","6","0","0","1","key07.jpg"
"3","grey_butterfly","5","red_flower","red_flower","1","0.857142857142857","1.105","22","2","7","0","0","1","moon.jpg"
"3","grey_butterfly","4","red_flower","red_flower","1","0.875","0.971","23","2","8","0","0","1","exitsign.jpg"
"3","white_butterfly","5","blue_flower","blue_flower","1","0.888888888888889","0.978","24","2","9","0","0","1","wheelchair.jpg"
"3","white_butterfly","2","blue_flower","blue_flower","1","0.9","0.873","25","2","10","0","0","1","file.jpg"
"3","grey_butterfly","2","red_flower","red_flower","1","0.909090909090909","1.23","26","2","11","0","0","1","pirateflag.jpg"
"3","grey_butterfly","3","red_flower","red_flower","1","0.916666666666667","1.239","27","2","12","0","0","1","butterfly1.jpg"
"3","white_butterfly","3","blue_flower","blue_flower","1","0.923076923076923","0.655","28","2","13","0","1","1","seagull.jpg"
"3","white_butterfly","4","blue_flower","blue_flower","1","0.928571428571429","1.867","29","2","14","0","1","1","fluorescentlightbulb.jpg"
"3","white_butterfly","5","blue_flower","blue_flower","1","0.933333333333333","1.586","30","2","15","0","1","1","xylophone.jpg"
"3","grey_butterfly","3","red_flower","red_flower","1","0.9375","1.417","31","2","16","0","1","1","basketball01.jpg"
"3","grey_butterfly","5","blue_flower","red_flower","0","0.882352941176471","0.853","32","2","17","0","1","1","shelves.jpg"
"3","grey_butterfly","5","red_flower","red_flower","1","0.888888888888889","1.146","33","2","18","0","1","1","cork02.jpg"
"3","grey_butterfly","3","red_flower","red_flower","1","0.894736842105263","0.489","34","2","19","1","1","1","cloud.jpg"
"3","grey_butterfly","3","red_flower","red_flower","1","0.9","0.764","35","2","20","1","1","1","beaver.jpg"
"3","grey_butterfly","5","blue_flower","red_flower","0","0.857142857142857","0.703","36","2","21","1","1","1","urinal.jpg"
"3","grey_butterfly","3","red_flower","red_flower","1","0.863636363636364","0.578","37","2","22","1","1","1","tulip02.jpg"
"3","white_butterfly","3","blue_flower","blue_flower","1","0.869565217391304","0.483","38","2","23","1","1","1","horse.jpg"
"3","grey_butterfly","5","red_flower","red_flower","1","0.875","0.54","39","2","24","1","1","1","musicstand.jpg"
"3","white_butterfly","4","blue_flower","blue_flower","1","0.88","1","40","2","25","1","2","1","frisbee.jpg"
"3","grey_butterfly","5","red_flower","red_flower","1","0.884615384615385","0.804","41","2","26","1","2","1","footballhelmet.jpg"
"3","white_butterfly","3","blue_flower","blue_flower","1","0.888888888888889","1","42","2","27","1","2","1","soccerball.jpg"
"3","grey_butterfly","3","red_flower","red_flower","1","0.892857142857143","0.743","43","2","28","1","2","1","windshieldwiper02.jpg"
"3","white_butterfly","4","blue_flower","blue_flower","1","0.896551724137931","1.413","44","2","29","1","2","1","windturbine.jpg"
"3","grey_butterfly","4","red_flower","red_flower","1","0.9","1.919","45","2","30","1","2","1","butterfly2.jpg"
"3","white_butterfly","3","blue_flower","blue_flower","1","0.903225806451613","0.892","46","2","31","1","2","1","blender.jpg"
"3","white_butterfly","2","blue_flower","blue_flower","1","0.90625","0.817","47","2","32","1","2","1","rockingchair.jpg"
"3","white_butterfly","4","blue_flower","blue_flower","1","0.909090909090909","0.925","48","2","33","1","2","1","desktopcomputer.jpg"
"3","grey_butterfly","5","red_flower","red_flower","1","0.911764705882353","0.761","49","2","34","1","2","1","tricycle.jpg"
"3","grey_butterfly","4","red_flower","red_flower","1","0.914285714285714","1.084","50","2","35","1","2","1","dreamcatcher.jpg"
"3","white_butterfly","5","blue_flower","blue_flower","1","0.916666666666667","0.594","51","2","36","1","2","1","contactlens.jpg"
"3","white_butterfly","5","blue_flower","green_flower","0","0.891891891891892","0.973","52","3","1","0","0","1","sailboat.jpg"
"3","white_butterfly","5","blue_flower","green_flower","0","0.868421052631579","0.454","53","3","2","0","0","1","asianelephant.jpg"
"3","grey_butterfly","4","red_flower","yellow_flower","0","0.846153846153846","0.672","54","3","3","0","0","1","triangle.jpg"
"3","white_butterfly","3","blue_flower","green_flower","0","0.825","1.211","55","3","4","0","0","1","redonion.jpg"
"3","grey_butterfly","5","red_flower","yellow_flower","0","0.804878048780488","0.527","56","3","5","0","0","1","acorn.jpg"
"3","white_butterfly","3","blue_flower","green_flower","0","0.785714285714286","0.583","57","3","6","0","0","1","communitymailbox.jpg"
"3","white_butterfly","3","blue_flower","green_flower","0","0.767441860465116","0.802","58","3","7","0","0","1","handheldtelescope.jpg"
"3","grey_butterfly","2","red_flower","yellow_flower","0","0.75","1.264","59","3","8","0","0","1","callbell.jpg"
"3","white_butterfly","3","green_flower","green_flower","1","0.755555555555556","0.488","60","3","9","0","0","1","candycane01a.jpg"
"3","grey_butterfly","2","yellow_flower","yellow_flower","1","0.760869565217391","0.692","61","3","10","0","0","1","coffeemaker.jpg"
"3","white_butterfly","3","yellow_flower","green_flower","0","0.74468085106383","0.904","62","3","11","0","0","1","electricguitar01.jpg"
"3","grey_butterfly","3","yellow_flower","yellow_flower","1","0.75","0.986","63","3","12","0","0","1","weddingcake.jpg"
"3","grey_butterfly","3","yellow_flower","yellow_flower","1","0.755102040816326","0.682","64","3","13","0","1","1","balcony02.jpg"
"3","grey_butterfly","4","yellow_flower","yellow_flower","1","0.76","0.54","65","3","14","0","1","1","cashregister01.jpg"
"3","white_butterfly","3","green_flower","green_flower","1","0.764705882352941","0.491","66","3","15","0","1","1","doubledoors.jpg"
"3","white_butterfly","3","green_flower","green_flower","1","0.769230769230769","0.624","67","3","16","0","1","1","butterfly3.jpg"
"3","white_butterfly","4","blue_flower","green_flower","0","0.754716981132076","0.838","68","3","17","0","1","1","waterfountain02.jpg"
"3","grey_butterfly","3","yellow_flower","yellow_flower","1","0.759259259259259","1.375","69","3","18","0","1","1","panda.jpg"
"3","white_butterfly","5","green_flower","green_flower","1","0.763636363636364","1.566","70","3","19","1","1","1","greywolf.jpg"
"3","white_butterfly","3","yellow_flower","green_flower","0","0.75","2.1","71","3","20","1","1","1","forklift.jpg"
"3","grey_butterfly","4","green_flower","yellow_flower","0","0.736842105263158","0.684","72","3","21","1","1","1","barrel01.jpg"
"3","grey_butterfly","2","yellow_flower","yellow_flower","1","0.741379310344828","0.567","73","3","22","1","1","1","fingerprint.jpg"
"3","grey_butterfly","4","yellow_flower","yellow_flower","1","0.745762711864407","1.852","74","3","23","1","1","1","bacon.jpg"
"3","white_butterfly","3","green_flower","green_flower","1","0.75","1.563","75","3","24","1","1","1","witchhat.jpg"
"3","white_butterfly","5","yellow_flower","green_flower","0","0.737704918032787","0.865","76","3","25","1","2","1","hotdog.jpg"
"3","grey_butterfly","5","yellow_flower","yellow_flower","1","0.741935483870968","1.447","77","3","26","1","2","1","jeans01.jpg"
"3","white_butterfly","3","green_flower","green_flower","1","0.746031746031746","0.486","78","3","27","1","2","1","shovel01.jpg"
"3","white_butterfly","1",NA,"green_flower","0","0.734375",NA,"79","3","28","1","2","1","skihelmet01.jpg"
"3","grey_butterfly","2","yellow_flower","yellow_flower","1","0.738461538461539","1.019","80","3","29","1","2","1","duck01.jpg"
"3","white_butterfly","4","green_flower","green_flower","1","0.742424242424242","0.726","81","3","30","1","2","1","vacuumcleaner01.jpg"
"3","grey_butterfly","4","yellow_flower","yellow_flower","1","0.746268656716418","1.626","82","3","31","1","2","1","chime.jpg"
"3","grey_butterfly","2","yellow_flower","yellow_flower","1","0.75","0.807","83","3","32","1","2","1","chipmunk.jpg"
"3","grey_butterfly","4","yellow_flower","yellow_flower","1","0.753623188405797","1.054","84","3","33","1","2","1","butterfly4.jpg"
"3","white_butterfly","2","green_flower","green_flower","1","0.757142857142857","0.997","85","3","34","1","2","1","jellyfish.jpg"
"3","grey_butterfly","5","yellow_flower","yellow_flower","1","0.76056338028169","1.581","86","3","35","1","2","1","apron.jpg"
"3","grey_butterfly","4","yellow_flower","yellow_flower","1","0.763888888888889","0.584","87","3","36","1","2","1","scalpel.jpg"
"3","white_butterfly","2","green_flower","yellow_flower","0","0.753424657534247","1.348","88","4","1","0","0","1","monarchbutterfly.jpg"
"3","grey_butterfly","5","yellow_flower","blue_flower","0","0.743243243243243","0.57","89","4","2","0","0","1","baseballglove.jpg"
"3","grey_butterfly","2","yellow_flower","blue_flower","0","0.733333333333333","2.284","90","4","3","0","0","1","granolabar01.jpg"
"3","white_butterfly","4","green_flower","yellow_flower","0","0.723684210526316","0.547","91","4","4","0","0","1","hockeypuck.jpg"
"3","white_butterfly","5","green_flower","yellow_flower","0","0.714285714285714","2.283","92","4","5","0","0","1","bookshelf.jpg"
"3","white_butterfly","2","yellow_flower","yellow_flower","1","0.717948717948718","0.547","93","4","6","0","0","1","gps.jpg"
"3","white_butterfly","4","yellow_flower","yellow_flower","1","0.721518987341772","1.054","94","4","7","0","0","1","porcupine.jpg"
"3","grey_butterfly","3","blue_flower","blue_flower","1","0.725","1.186","95","4","8","0","0","1","giraffe.jpg"
"3","grey_butterfly","2","blue_flower","blue_flower","1","0.728395061728395","0.588","96","4","9","0","0","1","toyanimal05.jpg"
"3","white_butterfly","5","yellow_flower","yellow_flower","1","0.731707317073171","1.796","97","4","10","0","0","1","hulahoop.jpg"
"3","grey_butterfly","4","green_flower","blue_flower","0","0.72289156626506","1.875","98","4","11","0","0","1","treadmill.jpg"
"3","white_butterfly","4","yellow_flower","yellow_flower","1","0.726190476190476","1.404","99","4","12","0","0","1","volleyball.jpg"
"3","grey_butterfly","3","blue_flower","blue_flower","1","0.729411764705882","0.487","100","4","13","0","1","1","whiteout.jpg"
"3","grey_butterfly","5","blue_flower","blue_flower","1","0.732558139534884","0.832","101","4","14","0","1","1","butterfly2.jpg"
"3","grey_butterfly","4","blue_flower","blue_flower","1","0.735632183908046","1.245","102","4","15","0","1","1","sandcastle.jpg"
"3","white_butterfly","3","green_flower","yellow_flower","0","0.727272727272727","1.186","103","4","16","0","1","1","ironingboard01.jpg"
"3","grey_butterfly","4","blue_flower","blue_flower","1","0.730337078651685","1.569","104","4","17","0","1","1","cookingpot.jpg"
"3","grey_butterfly","5","blue_flower","blue_flower","1","0.733333333333333","0.598","105","4","18","0","1","1","snowglobe.jpg"
"3","white_butterfly","4","yellow_flower","yellow_flower","1","0.736263736263736","1.571","106","4","19","1","1","1","jaguar.jpg"
"3","grey_butterfly","3","blue_flower","blue_flower","1","0.739130434782609","0.494","107","4","20","1","1","1","escalator.jpg"
"3","grey_butterfly","4","blue_flower","blue_flower","1","0.741935483870968","0.581","108","4","21","1","1","1","surfboard.jpg"
"3","grey_butterfly","2","blue_flower","blue_flower","1","0.74468085106383","0.735","109","4","22","1","1","1","winniethepooh.jpg"
"3","white_butterfly","4","green_flower","yellow_flower","0","0.736842105263158","1.736","110","4","23","1","1","1","lantern03.jpg"
"3","white_butterfly","5","yellow_flower","yellow_flower","1","0.739583333333333","0.499","111","4","24","1","1","1","polarbear.jpg"
"3","white_butterfly","3","yellow_flower","yellow_flower","1","0.742268041237113","2.04","112","4","25","1","2","1","microwave.jpg"
"3","white_butterfly","4","yellow_flower","yellow_flower","1","0.744897959183674","0.432","113","4","26","1","2","1","dalmatian.jpg"
"3","white_butterfly","2","yellow_flower","yellow_flower","1","0.747474747474748","0.702","114","4","27","1","2","1","trafficlight.jpg"
"3","white_butterfly","3","yellow_flower","yellow_flower","1","0.75","0.472","115","4","28","1","2","1","birdfeeder.jpg"
"3","grey_butterfly","5","blue_flower","blue_flower","1","0.752475247524752","1.547","116","4","29","1","2","1","golfball.jpg"
"3","white_butterfly","3","yellow_flower","yellow_flower","1","0.754901960784314","0.855","117","4","30","1","2","1","butterfly2.jpg"
"3","white_butterfly","3","yellow_flower","yellow_flower","1","0.757281553398058","0.53","118","4","31","1","2","1","handbrush02.jpg"
"3","grey_butterfly","4","blue_flower","blue_flower","1","0.759615384615385","1.184","119","4","32","1","2","1","dogsled.jpg"
"3","white_butterfly","3","blue_flower","yellow_flower","0","0.752380952380952","1.677","120","4","33","1","2","1","seaturtle.jpg"
"3","grey_butterfly","4","blue_flower","blue_flower","1","0.754716981132076","0.805","121","4","34","1","2","1","canoepaddle02.jpg"
"3","grey_butterfly","3","blue_flower","blue_flower","1","0.757009345794392","0.435","122","4","35","1","2","1","trophy01.jpg"
"3","grey_butterfly","2","blue_flower","blue_flower","1","0.759259259259259","1.054","123","4","36","1","2","1","donut.jpg"
"3","white_butterfly","1",NA,"red_flower","0","0.752293577981651",NA,"124","5","1","0","0","1","artichoke01b.jpg"
"3","white_butterfly","5","yellow_flower","red_flower","0","0.745454545454545","1.129","125","5","2","0","0","1","lintroller.jpg"
"3","white_butterfly","2","red_flower","red_flower","1","0.747747747747748","0.503","126","5","3","0","0","1","fridge.jpg"
"3","white_butterfly","4","red_flower","red_flower","1","0.75","0.449","127","5","4","0","0","1","shower.jpg"
"3","white_butterfly","2","red_flower","red_flower","1","0.752212389380531","0.619","128","5","5","0","0","1","zebra.jpg"
"3","white_butterfly","4","red_flower","red_flower","1","0.754385964912281","0.467","129","5","6","0","0","1","jokercard.jpg"
"3","white_butterfly","2","red_flower","red_flower","1","0.756521739130435","0.843","130","5","7","0","0","1","recyclingbin.jpg"
"3","grey_butterfly","2","blue_flower","green_flower","0","0.75","1.145","131","5","8","0","0","1","aquarium.jpg"
"3","grey_butterfly","3","green_flower","green_flower","1","0.752136752136752","0.469","132","5","9","0","0","1","skiboot01a.jpg"
"3","grey_butterfly","5","green_flower","green_flower","1","0.754237288135593","0.529","133","5","10","0","0","1","cuttlefish.jpg"
"3","grey_butterfly","2","green_flower","green_flower","1","0.756302521008403","0.536","134","5","11","0","0","1","stool01.jpg"
"3","white_butterfly","4","blue_flower","red_flower","0","0.75","1.964","135","5","12","0","0","1","pumpkin.jpg"
"3","grey_butterfly","1",NA,"green_flower","0","0.743801652892562",NA,"136","5","13","0","1","1","mirror02.jpg"
"3","grey_butterfly","4","blue_flower","green_flower","0","0.737704918032787","0.979","137","5","14","0","1","1","crab01.jpg"
"3","grey_butterfly","5","green_flower","green_flower","1","0.739837398373984","0.478","138","5","15","0","1","1","butterfly3.jpg"
"3","white_butterfly","3","green_flower","red_flower","0","0.733870967741935","0.511","139","5","16","0","1","1","fishskeleton.jpg"
"3","grey_butterfly","1",NA,"green_flower","0","0.728",NA,"140","5","17","0","1","1","jackrabbit.jpg"
"3","white_butterfly","5","red_flower","red_flower","1","0.73015873015873","1.662","141","5","18","0","1","1","dartboard.jpg"
"3","grey_butterfly","5","green_flower","green_flower","1","0.732283464566929","0.868","142","5","19","1","1","1","brownsugar.jpg"
"3","white_butterfly","4","red_flower","red_flower","1","0.734375","1.268","143","5","20","1","1","1","cremebrulee.jpg"
"3","grey_butterfly","3","red_flower","green_flower","0","0.728682170542636","0.574","144","5","21","1","1","1","doghouse.jpg"
"3","white_butterfly","5","red_flower","red_flower","1","0.730769230769231","0.58","145","5","22","1","1","1","filingcabinet.jpg"
"3","grey_butterfly","5","green_flower","green_flower","1","0.732824427480916","0.561","146","5","23","1","1","1","hockeystick.jpg"
"3","grey_butterfly","2","green_flower","green_flower","1","0.734848484848485","0.897","147","5","24","1","1","1","bolt01a.jpg"
"3","grey_butterfly","2","green_flower","green_flower","1","0.736842105263158","0.734","148","5","25","1","2","1","ipad02.jpg"
"3","grey_butterfly","3","green_flower","green_flower","1","0.738805970149254","0.447","149","5","26","1","2","1","cannon.jpg"
"3","white_butterfly","4","green_flower","red_flower","0","0.733333333333333","0.928","150","5","27","1","2","1","bathtub.jpg"
"3","grey_butterfly","5","green_flower","green_flower","1","0.735294117647059","0.501","151","5","28","1","2","1","cactus.jpg"
"3","white_butterfly","5","red_flower","red_flower","1","0.737226277372263","1.376","152","5","29","1","2","1","lionstatue.jpg"
"3","grey_butterfly","4","green_flower","green_flower","1","0.739130434782609","0.953","153","5","30","1","2","1","locomotive.jpg"
"3","white_butterfly","3","red_flower","red_flower","1","0.741007194244604","1.387","154","5","31","1","2","1","stepladder.jpg"
"3","white_butterfly","5","red_flower","red_flower","1","0.742857142857143","0.467","155","5","32","1","2","1","butterfly2.jpg"
"3","grey_butterfly","2","green_flower","green_flower","1","0.74468085106383","1.294","156","5","33","1","2","1","battleaxe.jpg"
"3","white_butterfly","3","red_flower","red_flower","1","0.746478873239437","0.802","157","5","34","1","2","1","crown.jpg"
"3","white_butterfly","2","green_flower","red_flower","0","0.741258741258741","0.423","158","5","35","1","2","1","snowshovel.jpg"
"3","grey_butterfly","3","green_flower","green_flower","1","0.743055555555556","0.533","159","5","36","1","2","1","lightswitch01.jpg"
"4","white_butterfly","2","blue_flower","blue_flower","1","1","0.72144","1","0","1","0","0","1","firehydrant.jpg"
"4","white_butterfly","4","blue_flower","blue_flower","1","1","0.49346","2","0","2","0","0","1","tennisracket.jpg"
"4","white_butterfly","4","blue_flower","blue_flower","1","1","1.262975","3","0","3","0","0","1","tire.jpg"
"4","grey_butterfly","4","red_flower","red_flower","1","1","0.490835","4","0","4","0","0","1","flipflop01b.jpg"
"4","grey_butterfly","5","red_flower","red_flower","1","1","0.64181","5","0","5","0","0","1","shed02.jpg"
"4","grey_butterfly","3","red_flower","red_flower","1","1","0.58141","6","0","6","0","1","1","wheat.jpg"
"4","grey_butterfly","5","red_flower","red_flower","1","1","0.589365","7","0","7","0","1","1","marble.jpg"
"4","grey_butterfly","5","red_flower","red_flower","1","1","0.4463","8","0","8","0","1","1","corn02.jpg"
"4","white_butterfly","3","blue_flower","blue_flower","1","1","0.320475","9","0","9","1","1","1","skunk.jpg"
"4","white_butterfly","5","blue_flower","blue_flower","1","1","0.38845","10","0","10","1","1","1","motorcycle.jpg"
"4","white_butterfly","4","blue_flower","blue_flower","1","1","0.841545","11","0","11","1","2","1","foosballtable.jpg"
"4","grey_butterfly","4","red_flower","red_flower","1","1","0.506845","12","0","12","1","2","1","toucan.jpg"
"4","grey_butterfly","3","red_flower","red_flower","1","1","0.46937","13","0","13","1","2","1","shelf.jpg"
"4","white_butterfly","2","blue_flower","blue_flower","1","1","0.70555","14","0","14","1","2","1","toolbox02.jpg"
"4","white_butterfly","2","blue_flower","blue_flower","1","1","0.77192","15","0","15","1","2","1","birdfeeder.jpg"
"4","white_butterfly","3","blue_flower","blue_flower","1","1","0.51924","16","2","1","0","0","1","cashregister01.jpg"
"4","white_butterfly","3","blue_flower","blue_flower","1","1","0.73091","17","2","2","0","0","1","file.jpg"
"4","grey_butterfly","2","red_flower","red_flower","1","1","0.92822","18","2","3","0","0","1","scalpel.jpg"
"4","white_butterfly","4","blue_flower","blue_flower","1","1","0.722665","19","2","4","0","0","1","car.jpg"
"4","white_butterfly","3","blue_flower","blue_flower","1","1","0.41465","20","2","5","0","0","1","forklift.jpg"
"4","white_butterfly","4","blue_flower","blue_flower","1","1","0.915695","21","2","6","0","0","1","snowglobe.jpg"
"4","grey_butterfly","5","red_flower","red_flower","1","1","0.370545","22","2","7","0","0","1","rollerblade.jpg"
"4","grey_butterfly","4","red_flower","red_flower","1","1","0.446875","23","2","8","0","0","1","treestump.jpg"
"4","white_butterfly","5","blue_flower","blue_flower","1","1","0.543155","24","2","9","0","0","1","tricycle.jpg"
"4","white_butterfly","2","blue_flower","blue_flower","1","1","0.674425","25","2","10","0","0","1","beaver.jpg"
"4","grey_butterfly","2","red_flower","red_flower","1","1","1.250975","26","2","11","0","0","1","fridge.jpg"
"4","grey_butterfly","3","red_flower","red_flower","1","1","0.5513","27","2","12","0","0","1","moon.jpg"
"4","white_butterfly","3","blue_flower","blue_flower","1","1","0.84304","28","2","13","0","1","1","bowlingpin.jpg"
"4","white_butterfly","4","blue_flower","blue_flower","1","1","0.5805","29","2","14","0","1","1","dolphin01.jpg"
"4","white_butterfly","5","blue_flower","blue_flower","1","1","0.615445","30","2","15","0","1","1","butterfly5.jpg"
"4","grey_butterfly","3","red_flower","red_flower","1","1","0.73685","31","2","16","0","1","1","sandcastle.jpg"
"4","grey_butterfly","2","red_flower","red_flower","1","1","0.53238","32","2","17","0","1","1","mirror02.jpg"
"4","grey_butterfly","5","red_flower","red_flower","1","1","0.86076","33","2","18","0","1","1","bacon.jpg"
"4","grey_butterfly","3","red_flower","red_flower","1","1","0.37242","34","2","19","1","1","1","triangle.jpg"
"4","grey_butterfly","3","red_flower","red_flower","1","1","1.11447","35","2","20","1","1","1","jokercard.jpg"
"4","grey_butterfly","4","red_flower","red_flower","1","1","0.5596","36","2","21","1","1","1","bookshelf.jpg"
"4","grey_butterfly","3","red_flower","red_flower","1","1","0.671855","37","2","22","1","1","1","jeans01.jpg"
"4","white_butterfly","3","blue_flower","blue_flower","1","1","0.456455","38","2","23","1","1","1","dogsled.jpg"
"4","grey_butterfly","5","red_flower","red_flower","1","1","0.65525","39","2","24","1","1","1","artichoke01b.jpg"
"4","white_butterfly","4","blue_flower","blue_flower","1","1","0.432845","40","2","25","1","2","1","gong.jpg"
"4","grey_butterfly","5","red_flower","red_flower","1","1","0.658255","41","2","26","1","2","1","exitsign.jpg"
"4","white_butterfly","3","blue_flower","blue_flower","1","1","0.37628","42","2","27","1","2","1","zebra.jpg"
"4","grey_butterfly","3","red_flower","red_flower","1","1","0.88853","43","2","28","1","2","1","apron.jpg"
"4","white_butterfly","4","blue_flower","blue_flower","1","1","0.55361","44","2","29","1","2","1","dalmatian.jpg"
"4","grey_butterfly","4","red_flower","red_flower","1","1","0.71238","45","2","30","1","2","1","butterfly2.jpg"
"4","white_butterfly","3","blue_flower","blue_flower","1","1","0.517955","46","2","31","1","2","1","whiteout.jpg"
"4","white_butterfly","2","blue_flower","blue_flower","1","1","0.63592","47","2","32","1","2","1","star.jpg"
"4","white_butterfly","4","blue_flower","blue_flower","1","1","1.11477","48","2","33","1","2","1","golfball.jpg"
"4","grey_butterfly","5","red_flower","red_flower","1","1","0.46461","49","2","34","1","2","1","skateboard.jpg"
"4","grey_butterfly","4","red_flower","red_flower","1","1","0.456285","50","2","35","1","2","1","crab01.jpg"
"4","white_butterfly","5","blue_flower","blue_flower","1","1","0.83676","51","2","36","1","2","1","snowman.jpg"
"4","white_butterfly","5","blue_flower","green_flower","0","0.972972972972973","0.4463","52","3","1","0","0","1","cork02.jpg"
"4","white_butterfly","5","blue_flower","green_flower","0","0.947368421052632","0.781565","53","3","2","0","0","1","trombone.jpg"
"4","grey_butterfly","4","red_flower","yellow_flower","0","0.923076923076923","0.59303","54","3","3","0","0","1","electricguitar01.jpg"
"4","white_butterfly","3","blue_flower","green_flower","0","0.9","1.689215","55","3","4","0","0","1","hockeypuck.jpg"
"4","grey_butterfly","3","yellow_flower","yellow_flower","1","0.902439024390244","1.03229","56","3","5","0","0","1","sailboat.jpg"
"4","white_butterfly","2","green_flower","green_flower","1","0.904761904761905","1.00815","57","3","6","0","0","1","surfboard.jpg"
"4","white_butterfly","5","green_flower","green_flower","1","0.906976744186046","0.442635","58","3","7","0","0","1","desktopcomputer.jpg"
"4","grey_butterfly","4","yellow_flower","yellow_flower","1","0.909090909090909","1.553955","59","3","8","0","0","1","baseballglove.jpg"
"4","white_butterfly","3","green_flower","green_flower","1","0.911111111111111","1.92374","60","3","9","0","0","1","bolt01a.jpg"
"4","grey_butterfly","2","yellow_flower","yellow_flower","1","0.91304347826087","0.72363","61","3","10","0","0","1","spicerack.jpg"
"4","white_butterfly","2","green_flower","green_flower","1","0.914893617021277","1.312015","62","3","11","0","0","1","hockeystick.jpg"
"4","grey_butterfly","3","yellow_flower","yellow_flower","1","0.916666666666667","0.407265","63","3","12","0","0","1","ipad02.jpg"
"4","grey_butterfly","3","yellow_flower","yellow_flower","1","0.918367346938776","0.86083","64","3","13","0","1","1","locomotive.jpg"
"4","grey_butterfly","4","yellow_flower","yellow_flower","1","0.92","0.641405","65","3","14","0","1","1","lintroller.jpg"
"4","white_butterfly","3","green_flower","green_flower","1","0.92156862745098","1.93576","66","3","15","0","1","1","butterfly2.jpg"
"4","white_butterfly","3","green_flower","green_flower","1","0.923076923076923","0.482755","67","3","16","0","1","1","coffeemachine.jpg"
"4","white_butterfly","3","green_flower","green_flower","1","0.924528301886792","1.26918","68","3","17","0","1","1","asianelephant.jpg"
"4","grey_butterfly","3","yellow_flower","yellow_flower","1","0.925925925925926","0.88176","69","3","18","0","1","1","showerhead01.jpg"
"4","white_butterfly","5","green_flower","green_flower","1","0.927272727272727","0.78644","70","3","19","1","1","1","snowshovel.jpg"
"4","white_butterfly","2","green_flower","green_flower","1","0.928571428571429","0.686885","71","3","20","1","1","1","hulahoop.jpg"
"4","grey_butterfly","2","yellow_flower","yellow_flower","1","0.929824561403509","1.593215","72","3","21","1","1","1","gps.jpg"
"4","grey_butterfly","2","yellow_flower","yellow_flower","1","0.931034482758621","0.36861","73","3","22","1","1","1","treadmill.jpg"
"4","grey_butterfly","3","green_flower","yellow_flower","0","0.915254237288136","2.294115","74","3","23","1","1","1","tie02.jpg"
"4","white_butterfly","3","green_flower","green_flower","1","0.916666666666667","0.50349","75","3","24","1","1","1","contactlens.jpg"
"4","white_butterfly","2","green_flower","green_flower","1","0.918032786885246","0.498745","76","3","25","1","2","1","wheelchair.jpg"
"4","grey_butterfly","5","yellow_flower","yellow_flower","1","0.919354838709677","0.8935","77","3","26","1","2","1","cactus.jpg"
"4","white_butterfly","3","green_flower","green_flower","1","0.920634920634921","0.602995","78","3","27","1","2","1","weddingcake.jpg"
"4","white_butterfly","4","green_flower","green_flower","1","0.921875","0.527595","79","3","28","1","2","1","rockingchair.jpg"
"4","grey_butterfly","2","yellow_flower","yellow_flower","1","0.923076923076923","0.539525","80","3","29","1","2","1","dartboard.jpg"
"4","white_butterfly","4","green_flower","green_flower","1","0.924242424242424","1.002135","81","3","30","1","2","1","handbrush02.jpg"
"4","grey_butterfly","4","yellow_flower","yellow_flower","1","0.925373134328358","0.863755","82","3","31","1","2","1","battleaxe.jpg"
"4","grey_butterfly","2","yellow_flower","yellow_flower","1","0.926470588235294","0.49136","83","3","32","1","2","1","cuttlefish.jpg"
"4","grey_butterfly","4","yellow_flower","yellow_flower","1","0.927536231884058","0.71926","84","3","33","1","2","1","butterfly4.jpg"
"4","white_butterfly","2","green_flower","green_flower","1","0.928571428571429","0.64354","85","3","34","1","2","1","xylophone.jpg"
"4","grey_butterfly","5","yellow_flower","yellow_flower","1","0.929577464788732","0.470625","86","3","35","1","2","1","coffeemaker.jpg"
"4","grey_butterfly","4","yellow_flower","yellow_flower","1","0.930555555555556","0.396285","87","3","36","1","2","1","bleachers.jpg"
"4","white_butterfly","2","green_flower","yellow_flower","0","0.917808219178082","0.43819","88","4","1","0","0","1","windturbine.jpg"
"4","grey_butterfly","5","yellow_flower","blue_flower","0","0.905405405405405","0.459725","89","4","2","0","0","1","seaturtle.jpg"
"4","grey_butterfly","2","yellow_flower","blue_flower","0","0.893333333333333","1.012355","90","4","3","0","0","1","cannon.jpg"
"4","white_butterfly","4","green_flower","yellow_flower","0","0.881578947368421","1.37376","91","4","4","0","0","1","stool01.jpg"
"4","white_butterfly","5","green_flower","yellow_flower","0","0.87012987012987","1.590445","92","4","5","0","0","1","cruiseship.jpg"
"4","white_butterfly","2","yellow_flower","yellow_flower","1","0.871794871794872","1.13069","93","4","6","0","0","1","escalator.jpg"
"4","white_butterfly","4","yellow_flower","yellow_flower","1","0.873417721518987","0.452575","94","4","7","0","0","1","fluorescentlightbulb.jpg"
"4","grey_butterfly","3","blue_flower","blue_flower","1","0.875","0.388305","95","4","8","0","0","1","basketball01.jpg"
"4","grey_butterfly","2","blue_flower","blue_flower","1","0.876543209876543","0.61383","96","4","9","0","0","1","canoepaddle02.jpg"
"4","white_butterfly","4","blue_flower","yellow_flower","0","0.865853658536585","0.313095","97","4","10","0","0","1","stepladder.jpg"
"4","grey_butterfly","3","blue_flower","blue_flower","1","0.867469879518072","1.134345","98","4","11","0","0","1","donut.jpg"
"4","white_butterfly","4","yellow_flower","yellow_flower","1","0.869047619047619","0.408755","99","4","12","0","0","1","tulip02.jpg"
"4","grey_butterfly","3","blue_flower","blue_flower","1","0.870588235294118","0.744475","100","4","13","0","1","1","pirateflag.jpg"
"4","grey_butterfly","5","blue_flower","blue_flower","1","0.872093023255814","0.969345","101","4","14","0","1","1","waterfountain02.jpg"
"4","grey_butterfly","3","yellow_flower","blue_flower","0","0.862068965517241","1.255805","102","4","15","0","1","1","tent.jpg"
"4","white_butterfly","4","yellow_flower","yellow_flower","1","0.863636363636364","0.84966","103","4","16","0","1","1","barn.jpg"
"4","grey_butterfly","4","blue_flower","blue_flower","1","0.865168539325843","0.444895","104","4","17","0","1","1","seagull.jpg"
"4","grey_butterfly","5","blue_flower","blue_flower","1","0.866666666666667","1.302575","105","4","18","0","1","1","bathtub.jpg"
"4","white_butterfly","4","yellow_flower","yellow_flower","1","0.868131868131868","0.739875","106","4","19","1","1","1","brownsugar.jpg"
"4","grey_butterfly","3","blue_flower","blue_flower","1","0.869565217391304","1.82623","107","4","20","1","1","1","pumpkin.jpg"
"4","grey_butterfly","4","blue_flower","blue_flower","1","0.870967741935484","0.60732","108","4","21","1","1","1","trophy01.jpg"
"4","grey_butterfly","3","red_flower","blue_flower","0","0.861702127659574","0.350095","109","4","22","1","1","1","horse.jpg"
"4","white_butterfly","5","yellow_flower","yellow_flower","1","0.863157894736842","0.657405","110","4","23","1","1","1","jackrabbit.jpg"
"4","white_butterfly","5","yellow_flower","yellow_flower","1","0.864583333333333","0.386155","111","4","24","1","1","1","jaguar.jpg"
"4","white_butterfly","3","yellow_flower","yellow_flower","1","0.865979381443299","0.41273","112","4","25","1","2","1","trafficlight.jpg"
"4","white_butterfly","4","yellow_flower","yellow_flower","1","0.86734693877551","0.434905","113","4","26","1","2","1","communitymailbox.jpg"
"4","white_butterfly","2","yellow_flower","yellow_flower","1","0.868686868686869","0.4704","114","4","27","1","2","1","dromedary.jpg"
"4","white_butterfly","3","yellow_flower","yellow_flower","1","0.87","0.68588","115","4","28","1","2","1","duck01.jpg"
"4","grey_butterfly","5","blue_flower","blue_flower","1","0.871287128712871","1.337885","116","4","29","1","2","1","soccerball.jpg"
"4","white_butterfly","3","yellow_flower","yellow_flower","1","0.872549019607843","1.236985","117","4","30","1","2","1","butterfly2.jpg"
"4","white_butterfly","3","yellow_flower","yellow_flower","1","0.87378640776699","0.719065","118","4","31","1","2","1","football.jpg"
"4","grey_butterfly","4","blue_flower","blue_flower","1","0.875","0.414115","119","4","32","1","2","1","polarbear.jpg"
"4","white_butterfly","4","yellow_flower","yellow_flower","1","0.876190476190476","1.642755","120","4","33","1","2","1","monarchbutterfly.jpg"
"4","grey_butterfly","4","blue_flower","blue_flower","1","0.877358490566038","0.484795","121","4","34","1","2","1","cymbal.jpg"
"4","grey_butterfly","5","yellow_flower","blue_flower","0","0.869158878504673","0.95421","122","4","35","1","2","1","footballhelmet.jpg"
"4","grey_butterfly","2","blue_flower","blue_flower","1","0.87037037037037","0.684395","123","4","36","1","2","1","panda.jpg"
"4","white_butterfly","3","yellow_flower","red_flower","0","0.862385321100917","1.03345","124","5","1","0","0","1","beerbottle.jpg"
"4","white_butterfly","5","yellow_flower","red_flower","0","0.854545454545454","0.90781","125","5","2","0","0","1","eyepatch.jpg"
"4","white_butterfly","5","blue_flower","red_flower","0","0.846846846846847","1.08668","126","5","3","0","0","1","jellyfish.jpg"
"4","white_butterfly","4","red_flower","red_flower","1","0.848214285714286","0.38864","127","5","4","0","0","1","aquarium.jpg"
"4","white_butterfly","2","red_flower","red_flower","1","0.849557522123894","0.550155","128","5","5","0","0","1","greywolf.jpg"
"4","white_butterfly","4","red_flower","red_flower","1","0.850877192982456","0.40196","129","5","6","0","0","1","fingerprint.jpg"
"4","white_butterfly","2","red_flower","red_flower","1","0.852173913043478","0.48837","130","5","7","0","0","1","dreamcatcher.jpg"
"4","grey_butterfly","4","red_flower","green_flower","0","0.844827586206897","0.44956","131","5","8","0","0","1","christmaslights.jpg"
"4","grey_butterfly","5","red_flower","green_flower","0","0.837606837606838","0.519305","132","5","9","0","0","1","porcupine.jpg"
"4","grey_butterfly","5","green_flower","green_flower","1","0.838983050847458","0.433585","133","5","10","0","0","1","volleyball.jpg"
"4","grey_butterfly","2","green_flower","green_flower","1","0.840336134453782","0.553145","134","5","11","0","0","1","cookingpot.jpg"
"4","white_butterfly","2","red_flower","red_flower","1","0.841666666666667","0.623535","135","5","12","0","0","1","ironingboard01.jpg"
"4","grey_butterfly","4","green_flower","green_flower","1","0.84297520661157","0.52065","136","5","13","0","1","1","filingcabinet.jpg"
"4","grey_butterfly","3","green_flower","green_flower","1","0.844262295081967","0.661175","137","5","14","0","1","1","butterfly2.jpg"
"4","grey_butterfly","5","green_flower","green_flower","1","0.845528455284553","0.40465","138","5","15","0","1","1","granolabar01.jpg"
"4","white_butterfly","5","red_flower","red_flower","1","0.846774193548387","1.611705","139","5","16","0","1","1","redonion.jpg"
"4","grey_butterfly","1",NA,"green_flower","0","0.84",NA,"140","5","17","0","1","1","cloud.jpg"
"4","white_butterfly","5","red_flower","red_flower","1","0.841269841269841","0.571145","141","5","18","0","1","1","chime.jpg"
"4","grey_butterfly","5","green_flower","green_flower","1","0.84251968503937","0.50598","142","5","19","1","1","1","fishingrod.jpg"
"4","white_butterfly","4","red_flower","red_flower","1","0.84375","0.762595","143","5","20","1","1","1","fishskeleton.jpg"
"4","grey_butterfly","2","green_flower","green_flower","1","0.844961240310077","0.98476","144","5","21","1","1","1","urinal.jpg"
"4","white_butterfly","5","red_flower","red_flower","1","0.846153846153846","1.24231","145","5","22","1","1","1","key07.jpg"
"4","grey_butterfly","5","green_flower","green_flower","1","0.847328244274809","0.77972","146","5","23","1","1","1","toyanimal05.jpg"
"4","grey_butterfly","2","green_flower","green_flower","1","0.848484848484849","1.01705","147","5","24","1","1","1","candycane01a.jpg"
"4","grey_butterfly","2","green_flower","green_flower","1","0.849624060150376","0.438485","148","5","25","1","2","1","vacuumcleaner01.jpg"
"4","grey_butterfly","3","green_flower","green_flower","1","0.850746268656716","0.478165","149","5","26","1","2","1","hotdog.jpg"
"4","white_butterfly","3","red_flower","red_flower","1","0.851851851851852","0.737525","150","5","27","1","2","1","lantern03.jpg"
"4","grey_butterfly","5","green_flower","green_flower","1","0.852941176470588","0.532565","151","5","28","1","2","1","blender.jpg"
"4","white_butterfly","5","red_flower","red_flower","1","0.854014598540146","0.41676","152","5","29","1","2","1","jellybean.jpg"
"4","grey_butterfly","4","green_flower","green_flower","1","0.855072463768116","0.55722","153","5","30","1","2","1","musicstand.jpg"
"4","white_butterfly","3","red_flower","red_flower","1","0.856115107913669","0.318425","154","5","31","1","2","1","skihelmet01.jpg"
"4","white_butterfly","5","red_flower","red_flower","1","0.857142857142857","1.441685","155","5","32","1","2","1","butterfly2.jpg"
"4","grey_butterfly","2","green_flower","green_flower","1","0.858156028368794","0.43163","156","5","33","1","2","1","frisbee.jpg"
"4","white_butterfly","3","red_flower","red_flower","1","0.859154929577465","0.344835","157","5","34","1","2","1","shovel01.jpg"
"4","white_butterfly","4","red_flower","red_flower","1","0.86013986013986","1.22243","158","5","35","1","2","1","callbell.jpg"
"4","grey_butterfly","3","green_flower","green_flower","1","0.861111111111111","1.38232","159","5","36","1","2","1","shelves.jpg"
"5","white_butterfly","5","red_flower","blue_flower","0","0","2.348","1","0","1","0","0","1","toolbox02.jpg"
"5","grey_butterfly","4","red_flower","red_flower","1","0.5","1.28","2","0","2","0","0","1","flipflop01b.jpg"
"5","white_butterfly","4","blue_flower","blue_flower","1","0.666666666666667","1","3","0","3","0","0","1","tire.jpg"
"5","grey_butterfly","2","blue_flower","red_flower","0","0.5","1.123","4","0","4","0","0","1","wheat.jpg"
"5","white_butterfly","5","red_flower","blue_flower","0","0.4","0.997","5","0","5","0","0","1","tennisracket.jpg"
"5","grey_butterfly","3","blue_flower","red_flower","0","0.333333333333333","1.739","6","0","6","0","1","1","shed02.jpg"
"5","grey_butterfly","4","red_flower","red_flower","1","0.428571428571429","0.709","7","0","7","0","1","1","toucan.jpg"
"5","white_butterfly","5","blue_flower","blue_flower","1","0.5","1.17","8","0","8","0","1","1","motorcycle.jpg"
"5","white_butterfly","4","blue_flower","blue_flower","1","0.555555555555556","0.852","9","0","9","1","1","1","foosballtable.jpg"
"5","grey_butterfly","5","red_flower","red_flower","1","0.6","0.932","10","0","10","1","1","1","marble.jpg"
"5","white_butterfly","3","red_flower","blue_flower","0","0.545454545454545","1.244","11","0","11","1","2","1","firehydrant.jpg"
"5","white_butterfly","2","blue_flower","blue_flower","1","0.583333333333333","1.382","12","0","12","1","2","1","birdfeeder.jpg"
"5","grey_butterfly","5","red_flower","red_flower","1","0.615384615384615","0.748","13","0","13","1","2","1","corn02.jpg"
"5","grey_butterfly","3","red_flower","red_flower","1","0.642857142857143","0.861","14","0","14","1","2","1","shelf.jpg"
"5","white_butterfly","2","yellow_flower","blue_flower","0","0.6","1.568","15","0","15","1","2","1","skunk.jpg"
"5","white_butterfly","3","blue_flower","blue_flower","1","1","2.03","16","2","1","0","0","1","vacuumcleaner01.jpg"
"5","white_butterfly","4","green_flower","blue_flower","0","0.5","1.68","17","2","2","0","0","1","eyepatch.jpg"
"5","grey_butterfly","1",NA,"red_flower","0","0.333333333333333",NA,"18","2","3","0","0","1","dolphin01.jpg"
"5","white_butterfly","5","yellow_flower","blue_flower","0","0.25","0.878","19","2","4","0","0","1","monarchbutterfly.jpg"
"5","white_butterfly","4","red_flower","blue_flower","0","0.2","1.418","20","2","5","0","0","1","gps.jpg"
"5","white_butterfly","4","blue_flower","blue_flower","1","0.333333333333333","2.089","21","2","6","0","0","1","trombone.jpg"
"5","grey_butterfly","5","red_flower","red_flower","1","0.428571428571429","1.051","22","2","7","0","0","1","skihelmet01.jpg"
"5","grey_butterfly","2","yellow_flower","red_flower","0","0.375","1.175","23","2","8","0","0","1","winniethepooh.jpg"
"5","white_butterfly","5","blue_flower","blue_flower","1","0.444444444444444","1.203","24","2","9","0","0","1","hulahoop.jpg"
"5","white_butterfly","4","yellow_flower","blue_flower","0","0.4","1.656","25","2","10","0","0","1","snowman.jpg"
"5","grey_butterfly","5","yellow_flower","red_flower","0","0.363636363636364","1.405","26","2","11","0","0","1","tricycle.jpg"
"5","grey_butterfly","2","blue_flower","red_flower","0","0.333333333333333","1.866","27","2","12","0","0","1","whiteout.jpg"
"5","white_butterfly","3","blue_flower","blue_flower","1","0.384615384615385","1.266","28","2","13","0","1","1","key07.jpg"
"5","white_butterfly","3","yellow_flower","blue_flower","0","0.357142857142857","2.235","29","2","14","0","1","1","file.jpg"
"5","white_butterfly","5","blue_flower","blue_flower","1","0.4","2.221","30","2","15","0","1","1","butterfly5.jpg"
"5","grey_butterfly","3","red_flower","red_flower","1","0.4375","0.821","31","2","16","0","1","1","lionstatue.jpg"
"5","grey_butterfly","2","red_flower","red_flower","1","0.470588235294118","2.175","32","2","17","0","1","1","bleachers.jpg"
"5","grey_butterfly","5","red_flower","red_flower","1","0.5","1.276","33","2","18","0","1","1","ipad02.jpg"
"5","grey_butterfly","2","blue_flower","red_flower","0","0.473684210526316","0.961","34","2","19","1","1","1","beerbottle.jpg"
"5","grey_butterfly","3","red_flower","red_flower","1","0.5","0.67","35","2","20","1","1","1","pumpkin.jpg"
"5","grey_butterfly","4","red_flower","red_flower","1","0.523809523809524","1.313","36","2","21","1","1","1","rollerblade.jpg"
"5","grey_butterfly","3","red_flower","red_flower","1","0.545454545454545","0.778","37","2","22","1","1","1","bowlingpin.jpg"
"5","white_butterfly","3","blue_flower","blue_flower","1","0.565217391304348","0.678","38","2","23","1","1","1","blender.jpg"
"5","grey_butterfly","5","red_flower","red_flower","1","0.583333333333333","0.87","39","2","24","1","1","1","christmaslights.jpg"
"5","white_butterfly","4","blue_flower","blue_flower","1","0.6","0.683","40","2","25","1","2","1","granolabar01.jpg"
"5","grey_butterfly","5","red_flower","red_flower","1","0.615384615384615","0.691","41","2","26","1","2","1","shower.jpg"
"5","white_butterfly","3","blue_flower","blue_flower","1","0.62962962962963","1.136","42","2","27","1","2","1","sandcastle.jpg"
"5","grey_butterfly","3","red_flower","red_flower","1","0.642857142857143","1.208","43","2","28","1","2","1","cookingpot.jpg"
"5","white_butterfly","4","blue_flower","blue_flower","1","0.655172413793103","0.949","44","2","29","1","2","1","baseballglove.jpg"
"5","grey_butterfly","4","red_flower","red_flower","1","0.666666666666667","0.832","45","2","30","1","2","1","candycane01a.jpg"
"5","white_butterfly","3","blue_flower","blue_flower","1","0.67741935483871","0.657","46","2","31","1","2","1","windturbine.jpg"
"5","white_butterfly","2","blue_flower","blue_flower","1","0.6875","0.955","47","2","32","1","2","1","desktopcomputer.jpg"
"5","white_butterfly","4","blue_flower","blue_flower","1","0.696969696969697","0.993","48","2","33","1","2","1","butterfly5.jpg"
"5","grey_butterfly","5","red_flower","red_flower","1","0.705882352941177","1.286","49","2","34","1","2","1","scalpel.jpg"
"5","grey_butterfly","4","red_flower","red_flower","1","0.714285714285714","0.625","50","2","35","1","2","1","footballhelmet.jpg"
"5","white_butterfly","5","blue_flower","blue_flower","1","0.722222222222222","0.767","51","2","36","1","2","1","seaturtle.jpg"
"5","white_butterfly","5","blue_flower","green_flower","0","0.702702702702703","0.621","52","3","1","0","0","1","callbell.jpg"
"5","white_butterfly","5","blue_flower","green_flower","0","0.684210526315789","1.526","53","3","2","0","0","1","polarbear.jpg"
"5","grey_butterfly","4","red_flower","yellow_flower","0","0.666666666666667","0.794","54","3","3","0","0","1","shovel01.jpg"
"5","white_butterfly","4","green_flower","green_flower","1","0.675","1.951","55","3","4","0","0","1","greywolf.jpg"
"5","grey_butterfly","4","green_flower","yellow_flower","0","0.658536585365854","1.274","56","3","5","0","0","1","giraffe.jpg"
"5","white_butterfly","1",NA,"green_flower","0","0.642857142857143",NA,"57","3","6","0","0","1","ironingboard01.jpg"
"5","white_butterfly","5","green_flower","green_flower","1","0.651162790697674","0.669","58","3","7","0","0","1","barn.jpg"
"5","grey_butterfly","4","yellow_flower","yellow_flower","1","0.659090909090909","0.978","59","3","8","0","0","1","showerhead01.jpg"
"5","white_butterfly","3","green_flower","green_flower","1","0.666666666666667","1.73","60","3","9","0","0","1","dreamcatcher.jpg"
"5","grey_butterfly","2","yellow_flower","yellow_flower","1","0.673913043478261","1.095","61","3","10","0","0","1","golfball.jpg"
"5","white_butterfly","2","green_flower","green_flower","1","0.680851063829787","1.127","62","3","11","0","0","1","wheelchair.jpg"
"5","grey_butterfly","3","yellow_flower","yellow_flower","1","0.6875","0.692","63","3","12","0","0","1","waterfountain02.jpg"
"5","grey_butterfly","3","yellow_flower","yellow_flower","1","0.693877551020408","1.022","64","3","13","0","1","1","fluorescentlightbulb.jpg"
"5","grey_butterfly","2","green_flower","yellow_flower","0","0.68","0.895","65","3","14","0","1","1","frisbee.jpg"
"5","white_butterfly","5","yellow_flower","green_flower","0","0.666666666666667","1.11","66","3","15","0","1","1","trophy01.jpg"
"5","white_butterfly","3","green_flower","green_flower","1","0.673076923076923","2.396","67","3","16","0","1","1","butterfly3.jpg"
"5","white_butterfly","3","green_flower","green_flower","1","0.679245283018868","0.77","68","3","17","0","1","1","mirror02.jpg"
"5","grey_butterfly","2","green_flower","yellow_flower","0","0.666666666666667","1.852","69","3","18","0","1","1","jeans01.jpg"
"5","white_butterfly","5","green_flower","green_flower","1","0.672727272727273","1.305","70","3","19","1","1","1","cashregister01.jpg"
"5","white_butterfly","3","yellow_flower","green_flower","0","0.660714285714286","1.226","71","3","20","1","1","1","salmon.jpg"
"5","grey_butterfly","2","yellow_flower","yellow_flower","1","0.666666666666667","1.824","72","3","21","1","1","1","jackrabbit.jpg"
"5","grey_butterfly","2","yellow_flower","yellow_flower","1","0.672413793103448","0.473","73","3","22","1","1","1","sausage.jpg"
"5","grey_butterfly","3","green_flower","yellow_flower","0","0.661016949152542","2.205","74","3","23","1","1","1","bolt01a.jpg"
"5","white_butterfly","5","yellow_flower","green_flower","0","0.65","0.662","75","3","24","1","1","1","chipmunk.jpg"
"5","white_butterfly","2","green_flower","green_flower","1","0.655737704918033","1.546","76","3","25","1","2","1","spicerack.jpg"
"5","grey_butterfly","4","green_flower","yellow_flower","0","0.645161290322581","1.076","77","3","26","1","2","1","beaver.jpg"
"5","white_butterfly","3","green_flower","green_flower","1","0.650793650793651","1.084","78","3","27","1","2","1","cuttlefish.jpg"
"5","white_butterfly","4","green_flower","green_flower","1","0.65625","0.744","79","3","28","1","2","1","communitymailbox.jpg"
"5","grey_butterfly","2","yellow_flower","yellow_flower","1","0.661538461538462","0.946","80","3","29","1","2","1","treestump.jpg"
"5","white_butterfly","4","green_flower","green_flower","1","0.666666666666667","0.554","81","3","30","1","2","1","butterfly1.jpg"
"5","grey_butterfly","4","yellow_flower","yellow_flower","1","0.671641791044776","1.018","82","3","31","1","2","1","basketball01.jpg"
"5","grey_butterfly","2","yellow_flower","yellow_flower","1","0.676470588235294","0.902","83","3","32","1","2","1","electricguitar01.jpg"
"5","grey_butterfly","4","yellow_flower","yellow_flower","1","0.681159420289855","0.628","84","3","33","1","2","1","snowglobe.jpg"
"5","white_butterfly","2","green_flower","green_flower","1","0.685714285714286","1.34","85","3","34","1","2","1","bacon.jpg"
"5","grey_butterfly","3","green_flower","yellow_flower","0","0.676056338028169","1.238","86","3","35","1","2","1","exitsign.jpg"
"5","grey_butterfly","4","yellow_flower","yellow_flower","1","0.680555555555556","1.552","87","3","36","1","2","1","windshieldwiper02.jpg"
"5","white_butterfly","2","green_flower","yellow_flower","0","0.671232876712329","1.631","88","4","1","0","0","1","shelves.jpg"
"5","grey_butterfly","2","green_flower","blue_flower","0","0.662162162162162","1.652","89","4","2","0","0","1","contactlens.jpg"
"5","grey_butterfly","5","red_flower","blue_flower","0","0.653333333333333","2.365","90","4","3","0","0","1","witchhat.jpg"
"5","white_butterfly","2","yellow_flower","yellow_flower","1","0.657894736842105","1.885","91","4","4","0","0","1","panda.jpg"
"5","white_butterfly","3","blue_flower","yellow_flower","0","0.649350649350649","0.904","92","4","5","0","0","1","filingcabinet.jpg"
"5","white_butterfly","4","green_flower","yellow_flower","0","0.641025641025641","1.831","93","4","6","0","0","1","artichoke01b.jpg"
"5","white_butterfly","2","blue_flower","yellow_flower","0","0.632911392405063","2.102","94","4","7","0","0","1","escalator.jpg"
"5","grey_butterfly","4","red_flower","blue_flower","0","0.625","2.139","95","4","8","0","0","1","hockeypuck.jpg"
"5","grey_butterfly","2","blue_flower","blue_flower","1","0.62962962962963","0.843","96","4","9","0","0","1","coffeemaker.jpg"
"5","white_butterfly","5","yellow_flower","yellow_flower","1","0.634146341463415","1.175","97","4","10","0","0","1","battleaxe.jpg"
"5","grey_butterfly","2","yellow_flower","blue_flower","0","0.626506024096386","0.852","98","4","11","0","0","1","snowshovel.jpg"
"5","white_butterfly","2","blue_flower","yellow_flower","0","0.619047619047619","1.04","99","4","12","0","0","1","zebra.jpg"
"5","grey_butterfly","3","blue_flower","blue_flower","1","0.623529411764706","0.93","100","4","13","0","1","1","star.jpg"
"5","grey_butterfly","5","blue_flower","blue_flower","1","0.627906976744186","0.889","101","4","14","0","1","1","canoepaddle02.jpg"
"5","grey_butterfly","4","blue_flower","blue_flower","1","0.632183908045977","0.943","102","4","15","0","1","1","butterfly5.jpg"
"5","white_butterfly","5","red_flower","yellow_flower","0","0.625","0.888","103","4","16","0","1","1","fishskeleton.jpg"
"5","grey_butterfly","2","green_flower","blue_flower","0","0.617977528089888","0.509","104","4","17","0","1","1","cork02.jpg"
"5","grey_butterfly","5","blue_flower","blue_flower","1","0.622222222222222","0.729","105","4","18","0","1","1","xylophone.jpg"
"5","white_butterfly","2","blue_flower","yellow_flower","0","0.615384615384615","1.984","106","4","19","1","1","1","apron.jpg"
"5","grey_butterfly","3","blue_flower","blue_flower","1","0.619565217391304","0.915","107","4","20","1","1","1","brownsugar.jpg"
"5","grey_butterfly","4","blue_flower","blue_flower","1","0.623655913978495","0.686","108","4","21","1","1","1","table01.jpg"
"5","grey_butterfly","2","blue_flower","blue_flower","1","0.627659574468085","0.492","109","4","22","1","1","1","toyanimal05.jpg"
"5","white_butterfly","5","yellow_flower","yellow_flower","1","0.631578947368421","0.711","110","4","23","1","1","1","jellybean.jpg"
"5","white_butterfly","5","yellow_flower","yellow_flower","1","0.635416666666667","0.486","111","4","24","1","1","1","jokercard.jpg"
"5","white_butterfly","3","yellow_flower","yellow_flower","1","0.639175257731959","0.782","112","4","25","1","2","1","seagull.jpg"
"5","white_butterfly","3","blue_flower","yellow_flower","0","0.63265306122449","2.015","113","4","26","1","2","1","surfboard.jpg"
"5","white_butterfly","5","green_flower","yellow_flower","0","0.626262626262626","0.735","114","4","27","1","2","1","sailboat.jpg"
"5","white_butterfly","3","yellow_flower","yellow_flower","1","0.63","0.827","115","4","28","1","2","1","duck01.jpg"
"5","grey_butterfly","5","blue_flower","blue_flower","1","0.633663366336634","1.016","116","4","29","1","2","1","butterfly1.jpg"
"5","white_butterfly","3","yellow_flower","yellow_flower","1","0.637254901960784","0.819","117","4","30","1","2","1","volleyball.jpg"
"5","white_butterfly","3","yellow_flower","yellow_flower","1","0.640776699029126","0.702","118","4","31","1","2","1","hotdog.jpg"
"5","grey_butterfly","4","blue_flower","blue_flower","1","0.644230769230769","0.911","119","4","32","1","2","1","cruiseship.jpg"
"5","white_butterfly","4","yellow_flower","yellow_flower","1","0.647619047619048","0.693","120","4","33","1","2","1","barrel01.jpg"
"5","grey_butterfly","4","blue_flower","blue_flower","1","0.650943396226415","0.659","121","4","34","1","2","1","doubledoors.jpg"
"5","grey_butterfly","3","blue_flower","blue_flower","1","0.654205607476635","1.33","122","4","35","1","2","1","stepladder.jpg"
"5","grey_butterfly","2","blue_flower","blue_flower","1","0.657407407407407","0.776","123","4","36","1","2","1","hockeystick.jpg"
"5","white_butterfly","2","blue_flower","red_flower","0","0.651376146788991","1.482","124","5","1","0","0","1","rockingchair.jpg"
"5","white_butterfly","2","red_flower","red_flower","1","0.654545454545455","0.544","125","5","2","0","0","1","crown.jpg"
"5","white_butterfly","2","red_flower","red_flower","1","0.657657657657658","0.636","126","5","3","0","0","1","tulip02.jpg"
"5","white_butterfly","4","red_flower","red_flower","1","0.660714285714286","0.98","127","5","4","0","0","1","pirateflag.jpg"
"5","white_butterfly","5","blue_flower","red_flower","0","0.654867256637168","0.752","128","5","5","0","0","1","urinal.jpg"
"5","white_butterfly","4","red_flower","red_flower","1","0.657894736842105","0.529","129","5","6","0","0","1","redonion.jpg"
"5","white_butterfly","3","blue_flower","red_flower","0","0.652173913043478","1.401","130","5","7","0","0","1","handbrush02.jpg"
"5","grey_butterfly","2","blue_flower","green_flower","0","0.646551724137931","0.594","131","5","8","0","0","1","horse.jpg"
"5","grey_butterfly","3","green_flower","green_flower","1","0.64957264957265","0.517","132","5","9","0","0","1","asianelephant.jpg"
"5","grey_butterfly","5","green_flower","green_flower","1","0.652542372881356","0.631","133","5","10","0","0","1","dartboard.jpg"
"5","grey_butterfly","2","green_flower","green_flower","1","0.65546218487395","0.606","134","5","11","0","0","1","cactus.jpg"
"5","white_butterfly","2","red_flower","red_flower","1","0.658333333333333","0.829","135","5","12","0","0","1","birdfeeder.jpg"
"5","grey_butterfly","5","red_flower","green_flower","0","0.652892561983471","0.783","136","5","13","0","1","1","butterfly1.jpg"
"5","grey_butterfly","5","red_flower","green_flower","0","0.647540983606557","1.204","137","5","14","0","1","1","skiboot01a.jpg"
"5","grey_butterfly","2","red_flower","green_flower","0","0.642276422764228","1.721","138","5","15","0","1","1","fishingrod.jpg"
"5","white_butterfly","4","blue_flower","red_flower","0","0.637096774193548","1.31","139","5","16","0","1","1","fridge.jpg"
"5","grey_butterfly","4","green_flower","green_flower","1","0.64","1.832","140","5","17","0","1","1","gong.jpg"
"5","white_butterfly","5","red_flower","red_flower","1","0.642857142857143","1.497","141","5","18","0","1","1","cloud.jpg"
"5","grey_butterfly","3","red_flower","green_flower","0","0.637795275590551","2.168","142","5","19","1","1","1","acorn.jpg"
"5","white_butterfly","4","red_flower","red_flower","1","0.640625","0.708","143","5","20","1","1","1","tent.jpg"
"5","grey_butterfly","2","green_flower","green_flower","1","0.643410852713178","0.923","144","5","21","1","1","1","lintroller.jpg"
"5","white_butterfly","5","red_flower","red_flower","1","0.646153846153846","2.146","145","5","22","1","1","1","dalmatian.jpg"
"5","grey_butterfly","4","blue_flower","green_flower","0","0.641221374045801","0.701","146","5","23","1","1","1","chime.jpg"
"5","grey_butterfly","5","red_flower","green_flower","0","0.636363636363636","0.793","147","5","24","1","1","1","donut.jpg"
"5","grey_butterfly","2","green_flower","green_flower","1","0.639097744360902","0.453","148","5","25","1","2","1","locomotive.jpg"
"5","grey_butterfly","3","green_flower","green_flower","1","0.641791044776119","0.735","149","5","26","1","2","1","triangle.jpg"
"5","white_butterfly","3","red_flower","red_flower","1","0.644444444444444","1.358","150","5","27","1","2","1","jaguar.jpg"
"5","grey_butterfly","4","red_flower","green_flower","0","0.639705882352941","2.353","151","5","28","1","2","1","dromedary.jpg"
"5","white_butterfly","3","green_flower","red_flower","0","0.635036496350365","1.584","152","5","29","1","2","1","lantern03.jpg"
"5","grey_butterfly","3","red_flower","green_flower","0","0.630434782608696","0.72","153","5","30","1","2","1","stool01.jpg"
"5","white_butterfly","3","red_flower","red_flower","1","0.633093525179856","0.742","154","5","31","1","2","1","porcupine.jpg"
"5","white_butterfly","5","red_flower","red_flower","1","0.635714285714286","0.612","155","5","32","1","2","1","jellyfish.jpg"
"5","grey_butterfly","2","green_flower","green_flower","1","0.638297872340426","2.015","156","5","33","1","2","1","weddingcake.jpg"
"5","white_butterfly","3","red_flower","red_flower","1","0.640845070422535","0.908","157","5","34","1","2","1","butterfly4.jpg"
"5","white_butterfly","4","red_flower","red_flower","1","0.643356643356643","1.549","158","5","35","1","2","1","recyclingbin.jpg"
"5","grey_butterfly","3","green_flower","green_flower","1","0.645833333333333","0.854","159","5","36","1","2","1","bookshelf.jpg"
"6","white_butterfly","4","blue_flower","blue_flower","1","1","0.821195","1","0","1","0","0","1","tennisracket.jpg"
"6","grey_butterfly","4","red_flower","red_flower","1","1","0.59604","2","0","2","0","0","1","flipflop01b.jpg"
"6","grey_butterfly","4","red_flower","red_flower","1","1","0.914285","3","0","3","0","0","1","toucan.jpg"
"6","grey_butterfly","5","red_flower","red_flower","1","1","0.63084","4","0","4","0","0","1","shed02.jpg"
"6","white_butterfly","5","blue_flower","blue_flower","1","1","0.517275","5","0","5","0","0","1","motorcycle.jpg"
"6","white_butterfly","2","blue_flower","blue_flower","1","1","0.8496","6","0","6","0","1","1","birdfeeder.jpg"
"6","grey_butterfly","2","blue_flower","red_flower","0","0.857142857142857","0.764755","7","0","7","0","1","1","wheat.jpg"
"6","grey_butterfly","5","red_flower","red_flower","1","0.875","0.548665","8","0","8","0","1","1","corn02.jpg"
"6","grey_butterfly","3","red_flower","red_flower","1","0.888888888888889","0.784195","9","0","9","1","1","1","shelf.jpg"
"6","white_butterfly","3","blue_flower","blue_flower","1","0.9","0.811945","10","0","10","1","1","1","skunk.jpg"
"6","grey_butterfly","5","red_flower","red_flower","1","0.909090909090909","0.767675","11","0","11","1","2","1","marble.jpg"
"6","white_butterfly","4","blue_flower","blue_flower","1","0.916666666666667","0.54524","12","0","12","1","2","1","tire.jpg"
"6","white_butterfly","4","blue_flower","blue_flower","1","0.923076923076923","0.46713","13","0","13","1","2","1","foosballtable.jpg"
"6","white_butterfly","3","red_flower","blue_flower","0","0.857142857142857","2.16482","14","0","14","1","2","1","firehydrant.jpg"
"6","white_butterfly","2","blue_flower","blue_flower","1","0.866666666666667","0.563335","15","0","15","1","2","1","toolbox02.jpg"
"6","white_butterfly","3","blue_flower","blue_flower","1","1","0.585205","16","2","1","0","0","1","handbrush02.jpg"
"6","white_butterfly","2","yellow_flower","blue_flower","0","0.5","1.16587","17","2","2","0","0","1","treadmill.jpg"
"6","grey_butterfly","2","red_flower","red_flower","1","0.666666666666667","0.68078","18","2","3","0","0","1","shower.jpg"
"6","white_butterfly","4","blue_flower","blue_flower","1","0.75","0.715225","19","2","4","0","0","1","skateboard.jpg"
"6","white_butterfly","3","blue_flower","blue_flower","1","0.8","0.68084","20","2","5","0","0","1","barrel01.jpg"
"6","white_butterfly","4","blue_flower","blue_flower","1","0.833333333333333","0.55274","21","2","6","0","0","1","xylophone.jpg"
"6","grey_butterfly","5","red_flower","red_flower","1","0.857142857142857","1.583185","22","2","7","0","0","1","forklift.jpg"
"6","grey_butterfly","4","red_flower","red_flower","1","0.875","0.612965","23","2","8","0","0","1","scalpel.jpg"
"6","white_butterfly","5","blue_flower","blue_flower","1","0.888888888888889","0.38022","24","2","9","0","0","1","sailboat.jpg"
"6","white_butterfly","2","blue_flower","blue_flower","1","0.9","1.200795","25","2","10","0","0","1","snowman.jpg"
"6","grey_butterfly","2","red_flower","red_flower","1","0.909090909090909","0.75887","26","2","11","0","0","1","stool01.jpg"
"6","grey_butterfly","3","red_flower","red_flower","1","0.916666666666667","0.91799","27","2","12","0","0","1","butterfly1.jpg"
"6","white_butterfly","3","blue_flower","blue_flower","1","0.923076923076923","0.83696","28","2","13","0","1","1","desktopcomputer.jpg"
"6","white_butterfly","4","blue_flower","blue_flower","1","0.928571428571429","0.5124","29","2","14","0","1","1","triangle.jpg"
"6","white_butterfly","4","green_flower","blue_flower","0","0.866666666666667","0.65883","30","2","15","0","1","1","dartboard.jpg"
"6","grey_butterfly","5","blue_flower","red_flower","0","0.8125","1.74411","31","2","16","0","1","1","electricguitar01.jpg"
"6","grey_butterfly","2","red_flower","red_flower","1","0.823529411764706","1.977275","32","2","17","0","1","1","doubledoors.jpg"
"6","grey_butterfly","5","red_flower","red_flower","1","0.833333333333333","0.689565","33","2","18","0","1","1","waterfountain02.jpg"
"6","grey_butterfly","2","blue_flower","red_flower","0","0.789473684210526","0.77296","34","2","19","1","1","1","skiboot01a.jpg"
"6","grey_butterfly","3","red_flower","red_flower","1","0.8","0.62615","35","2","20","1","1","1","rockingchair.jpg"
"6","grey_butterfly","5","blue_flower","red_flower","0","0.761904761904762","1.21458","36","2","21","1","1","1","trophy01.jpg"
"6","grey_butterfly","3","red_flower","red_flower","1","0.772727272727273","0.567235","37","2","22","1","1","1","fridge.jpg"
"6","white_butterfly","3","blue_flower","blue_flower","1","0.782608695652174","0.74381","38","2","23","1","1","1","filingcabinet.jpg"
"6","grey_butterfly","5","red_flower","red_flower","1","0.791666666666667","0.488875","39","2","24","1","1","1","crown.jpg"
"6","white_butterfly","4","blue_flower","blue_flower","1","0.8","0.526155","40","2","25","1","2","1","file.jpg"
"6","grey_butterfly","5","red_flower","red_flower","1","0.807692307692308","0.341255","41","2","26","1","2","1","blender.jpg"
"6","white_butterfly","3","blue_flower","blue_flower","1","0.814814814814815","0.72576","42","2","27","1","2","1","sandcastle.jpg"
"6","grey_butterfly","5","blue_flower","red_flower","0","0.785714285714286","0.53792","43","2","28","1","2","1","crab01.jpg"
"6","white_butterfly","4","blue_flower","blue_flower","1","0.793103448275862","0.50973","44","2","29","1","2","1","butterfly1.jpg"
"6","grey_butterfly","4","red_flower","red_flower","1","0.8","0.539045","45","2","30","1","2","1","doghouse.jpg"
"6","white_butterfly","3","blue_flower","blue_flower","1","0.806451612903226","0.72027","46","2","31","1","2","1","chime.jpg"
"6","white_butterfly","2","blue_flower","blue_flower","1","0.8125","0.9666","47","2","32","1","2","1","contactlens.jpg"
"6","white_butterfly","4","blue_flower","blue_flower","1","0.818181818181818","0.756575","48","2","33","1","2","1","snowglobe.jpg"
"6","grey_butterfly","5","red_flower","red_flower","1","0.823529411764706","0.48525","49","2","34","1","2","1","beerbottle.jpg"
"6","grey_butterfly","3","blue_flower","red_flower","0","0.8","0.62511","50","2","35","1","2","1","salmon.jpg"
"6","white_butterfly","5","blue_flower","blue_flower","1","0.805555555555556","1.099245","51","2","36","1","2","1","microwave.jpg"
"6","white_butterfly","5","blue_flower","green_flower","0","0.783783783783784","0.43001","52","3","1","0","0","1","whiteout.jpg"
"6","white_butterfly","5","blue_flower","green_flower","0","0.763157894736842","0.654865","53","3","2","0","0","1","dromedary.jpg"
"6","grey_butterfly","4","red_flower","yellow_flower","0","0.743589743589744","0.52565","54","3","3","0","0","1","cruiseship.jpg"
"6","white_butterfly","4","green_flower","green_flower","1","0.75","0.50781","55","3","4","0","0","1","rollerblade.jpg"
"6","grey_butterfly","3","yellow_flower","yellow_flower","1","0.75609756097561","0.739235","56","3","5","0","0","1","windshieldwiper02.jpg"
"6","white_butterfly","1",NA,"green_flower","0","0.738095238095238",NA,"57","3","6","0","0","1","candycane01a.jpg"
"6","white_butterfly","5","green_flower","green_flower","1","0.744186046511628","0.708015","58","3","7","0","0","1","canoepaddle02.jpg"
"6","grey_butterfly","4","yellow_flower","yellow_flower","1","0.75","0.59187","59","3","8","0","0","1","hotdog.jpg"
"6","white_butterfly","3","green_flower","green_flower","1","0.755555555555556","0.59789","60","3","9","0","0","1","cactus.jpg"
"6","grey_butterfly","2","yellow_flower","yellow_flower","1","0.760869565217391","0.6288","61","3","10","0","0","1","bookshelf.jpg"
"6","white_butterfly","2","green_flower","green_flower","1","0.765957446808511","0.808495","62","3","11","0","0","1","bathtub.jpg"
"6","grey_butterfly","3","yellow_flower","yellow_flower","1","0.770833333333333","0.42078","63","3","12","0","0","1","spicerack.jpg"
"6","grey_butterfly","3","yellow_flower","yellow_flower","1","0.775510204081633","0.51175","64","3","13","0","1","1","stepladder.jpg"
"6","grey_butterfly","4","yellow_flower","yellow_flower","1","0.78","0.49272","65","3","14","0","1","1","snowshovel.jpg"
"6","white_butterfly","3","green_flower","green_flower","1","0.784313725490196","0.794625","66","3","15","0","1","1","seaturtle.jpg"
"6","white_butterfly","3","green_flower","green_flower","1","0.788461538461538","1.533125","67","3","16","0","1","1","winniethepooh.jpg"
"6","white_butterfly","4","blue_flower","green_flower","0","0.773584905660377","1.06418","68","3","17","0","1","1","witchhat.jpg"
"6","grey_butterfly","5","red_flower","yellow_flower","0","0.759259259259259","0.77762","69","3","18","0","1","1","granolabar01.jpg"
"6","white_butterfly","3","red_flower","green_flower","0","0.745454545454545","1.253215","70","3","19","1","1","1","shovel01.jpg"
"6","white_butterfly","2","green_flower","green_flower","1","0.75","1.66305","71","3","20","1","1","1","fluorescentlightbulb.jpg"
"6","grey_butterfly","5","red_flower","yellow_flower","0","0.736842105263158","0.97021","72","3","21","1","1","1","urinal.jpg"
"6","grey_butterfly","2","yellow_flower","yellow_flower","1","0.741379310344828","1.59897","73","3","22","1","1","1","frisbee.jpg"
"6","grey_butterfly","2","blue_flower","yellow_flower","0","0.728813559322034","1.3495","74","3","23","1","1","1","porcupine.jpg"
"6","white_butterfly","4","blue_flower","green_flower","0","0.716666666666667","0.71652","75","3","24","1","1","1","showerhead01.jpg"
"6","white_butterfly","2","green_flower","green_flower","1","0.721311475409836","1.466095","76","3","25","1","2","1","handheldtelescope.jpg"
"6","grey_butterfly","4","green_flower","yellow_flower","0","0.709677419354839","1.049775","77","3","26","1","2","1","acorn.jpg"
"6","white_butterfly","3","green_flower","green_flower","1","0.714285714285714","0.820925","78","3","27","1","2","1","polarbear.jpg"
"6","white_butterfly","4","green_flower","green_flower","1","0.71875","1.89377","79","3","28","1","2","1","pirateflag.jpg"
"6","grey_butterfly","2","yellow_flower","yellow_flower","1","0.723076923076923","1.66168","80","3","29","1","2","1","seagull.jpg"
"6","white_butterfly","4","green_flower","green_flower","1","0.727272727272727","0.871535","81","3","30","1","2","1","toyanimal05.jpg"
"6","grey_butterfly","4","yellow_flower","yellow_flower","1","0.73134328358209","0.818195","82","3","31","1","2","1","greywolf.jpg"
"6","grey_butterfly","2","yellow_flower","yellow_flower","1","0.735294117647059","0.79119","83","3","32","1","2","1","butterfly3.jpg"
"6","grey_butterfly","3","green_flower","yellow_flower","0","0.72463768115942","1.198825","84","3","33","1","2","1","surfboard.jpg"
"6","white_butterfly","2","green_flower","green_flower","1","0.728571428571429","0.97656","85","3","34","1","2","1","donut.jpg"
"6","grey_butterfly","3","green_flower","yellow_flower","0","0.71830985915493","0.79269","86","3","35","1","2","1","apron.jpg"
"6","grey_butterfly","4","yellow_flower","yellow_flower","1","0.722222222222222","0.73734","87","3","36","1","2","1","footballhelmet.jpg"
"6","white_butterfly","2","green_flower","yellow_flower","0","0.712328767123288","1.26879","88","4","1","0","0","1","christmaslights.jpg"
"6","grey_butterfly","2","green_flower","blue_flower","0","0.702702702702703","2.080465","89","4","2","0","0","1","zebra.jpg"
"6","grey_butterfly","3","blue_flower","blue_flower","1","0.706666666666667","0.662125","90","4","3","0","0","1","giraffe.jpg"
"6","white_butterfly","4","green_flower","yellow_flower","0","0.697368421052632","1.131615","91","4","4","0","0","1","mirror02.jpg"
"6","white_butterfly","2","yellow_flower","yellow_flower","1","0.701298701298701","1.027715","92","4","5","0","0","1","recyclingbin.jpg"
"6","white_butterfly","1",NA,"yellow_flower","0","0.692307692307692",NA,"93","4","6","0","0","1","fishingrod.jpg"
"6","white_butterfly","4","yellow_flower","yellow_flower","1","0.69620253164557","0.695765","94","4","7","0","0","1","barn.jpg"
"6","grey_butterfly","2","green_flower","blue_flower","0","0.6875","1.67878","95","4","8","0","0","1","lightswitch01.jpg"
"6","grey_butterfly","2","blue_flower","blue_flower","1","0.691358024691358","2.22281","96","4","9","0","0","1","birdfeeder.jpg"
"6","white_butterfly","1",NA,"yellow_flower","0","0.682926829268293",NA,"97","4","10","0","0","1","cannon.jpg"
"6","grey_butterfly","3","blue_flower","blue_flower","1","0.686746987951807","1.26499","98","4","11","0","0","1","coffeemachine.jpg"
"6","white_butterfly","4","yellow_flower","yellow_flower","1","0.69047619047619","0.628525","99","4","12","0","0","1","treestump.jpg"
"6","grey_butterfly","4","yellow_flower","blue_flower","0","0.682352941176471","0.50763","100","4","13","0","1","1","panda.jpg"
"6","grey_butterfly","5","blue_flower","blue_flower","1","0.686046511627907","1.63468","101","4","14","0","1","1","butterfly2.jpg"
"6","grey_butterfly","4","blue_flower","blue_flower","1","0.689655172413793","1.347055","102","4","15","0","1","1","cymbal.jpg"
"6","white_butterfly","1",NA,"yellow_flower","0","0.681818181818182",NA,"103","4","16","0","1","1","baseballglove.jpg"
"6","grey_butterfly","2","green_flower","blue_flower","0","0.674157303370786","1.480515","104","4","17","0","1","1","weddingcake.jpg"
"6","grey_butterfly","4","yellow_flower","blue_flower","0","0.666666666666667","0.516925","105","4","18","0","1","1","key07.jpg"
"6","white_butterfly","4","yellow_flower","yellow_flower","1","0.67032967032967","0.619315","106","4","19","1","1","1","tricycle.jpg"
"6","grey_butterfly","2","green_flower","blue_flower","0","0.66304347826087","0.91085","107","4","20","1","1","1","escalator.jpg"
"6","grey_butterfly","3","yellow_flower","blue_flower","0","0.655913978494624","0.67671","108","4","21","1","1","1","volleyball.jpg"
"6","grey_butterfly","2","blue_flower","blue_flower","1","0.659574468085106","0.64463","109","4","22","1","1","1","football.jpg"
"6","white_butterfly","5","yellow_flower","yellow_flower","1","0.663157894736842","0.65076","110","4","23","1","1","1","windturbine.jpg"
"6","white_butterfly","5","yellow_flower","yellow_flower","1","0.666666666666667","0.601635","111","4","24","1","1","1","locomotive.jpg"
"6","white_butterfly","3","yellow_flower","yellow_flower","1","0.670103092783505","0.699255","112","4","25","1","2","1","bowlingpin.jpg"
"6","white_butterfly","4","yellow_flower","yellow_flower","1","0.673469387755102","0.57946","113","4","26","1","2","1","musicstand.jpg"
"6","white_butterfly","3","blue_flower","yellow_flower","0","0.666666666666667","0.938795","114","4","27","1","2","1","car.jpg"
"6","white_butterfly","3","yellow_flower","yellow_flower","1","0.67","0.662675","115","4","28","1","2","1","dreamcatcher.jpg"
"6","grey_butterfly","5","blue_flower","blue_flower","1","0.673267326732673","2.388225","116","4","29","1","2","1","table01.jpg"
"6","white_butterfly","3","yellow_flower","yellow_flower","1","0.676470588235294","0.61888","117","4","30","1","2","1","jaguar.jpg"
"6","white_butterfly","3","yellow_flower","yellow_flower","1","0.679611650485437","0.58685","118","4","31","1","2","1","butterfly3.jpg"
"6","grey_butterfly","4","blue_flower","blue_flower","1","0.682692307692308","0.678995","119","4","32","1","2","1","skihelmet01.jpg"
"6","white_butterfly","4","yellow_flower","yellow_flower","1","0.685714285714286","1.25403","120","4","33","1","2","1","bleachers.jpg"
"6","grey_butterfly","4","blue_flower","blue_flower","1","0.688679245283019","1.21293","121","4","34","1","2","1","jackrabbit.jpg"
"6","grey_butterfly","3","blue_flower","blue_flower","1","0.691588785046729","0.664315","122","4","35","1","2","1","hulahoop.jpg"
"6","grey_butterfly","2","blue_flower","blue_flower","1","0.694444444444444","0.74801","123","4","36","1","2","1","dogsled.jpg"
"6","white_butterfly","3","yellow_flower","red_flower","0","0.688073394495413","0.578235","124","5","1","0","0","1","trombone.jpg"
"6","white_butterfly","5","yellow_flower","red_flower","0","0.681818181818182","0.861265","125","5","2","0","0","1","trafficlight.jpg"
"6","white_butterfly","2","red_flower","red_flower","1","0.684684684684685","0.46893","126","5","3","0","0","1","aquarium.jpg"
"6","white_butterfly","4","red_flower","red_flower","1","0.6875","0.646095","127","5","4","0","0","1","dolphin01.jpg"
"6","white_butterfly","2","red_flower","red_flower","1","0.690265486725664","0.76007","128","5","5","0","0","1","battleaxe.jpg"
"6","white_butterfly","4","red_flower","red_flower","1","0.692982456140351","0.484475","129","5","6","0","0","1","cookingpot.jpg"
"6","white_butterfly","2","red_flower","red_flower","1","0.695652173913043","0.682535","130","5","7","0","0","1","star.jpg"
"6","grey_butterfly","5","yellow_flower","green_flower","0","0.689655172413793","0.882165","131","5","8","0","0","1","bacon.jpg"
"6","grey_butterfly","3","green_flower","green_flower","1","0.692307692307692","0.37538","132","5","9","0","0","1","golfball.jpg"
"6","grey_butterfly","5","green_flower","green_flower","1","0.694915254237288","0.86317","133","5","10","0","0","1","cuttlefish.jpg"
"6","grey_butterfly","2","green_flower","green_flower","1","0.697478991596639","1.45481","134","5","11","0","0","1","tent.jpg"
"6","white_butterfly","1",NA,"red_flower","0","0.691666666666667",NA,"135","5","12","0","0","1","chipmunk.jpg"
"6","grey_butterfly","1",NA,"green_flower","0","0.685950413223141",NA,"136","5","13","0","1","1","artichoke01b.jpg"
"6","grey_butterfly","3","green_flower","green_flower","1","0.688524590163934","0.573885","137","5","14","0","1","1","ipad02.jpg"
"6","grey_butterfly","5","green_flower","green_flower","1","0.691056910569106","0.931535","138","5","15","0","1","1","cloud.jpg"
"6","white_butterfly","5","red_flower","red_flower","1","0.693548387096774","1.94074","139","5","16","0","1","1","butterfly4.jpg"
"6","grey_butterfly","4","green_flower","green_flower","1","0.696","0.731605","140","5","17","0","1","1","lionstatue.jpg"
"6","white_butterfly","5","red_flower","red_flower","1","0.698412698412698","0.813615","141","5","18","0","1","1","ironingboard01.jpg"
"6","grey_butterfly","5","green_flower","green_flower","1","0.700787401574803","0.719615","142","5","19","1","1","1","cork02.jpg"
"6","white_butterfly","4","red_flower","red_flower","1","0.703125","0.61505","143","5","20","1","1","1","hockeystick.jpg"
"6","grey_butterfly","2","green_flower","green_flower","1","0.705426356589147","0.704735","144","5","21","1","1","1","asianelephant.jpg"
"6","white_butterfly","5","red_flower","red_flower","1","0.707692307692308","2.21368","145","5","22","1","1","1","jeans01.jpg"
"6","grey_butterfly","4","blue_flower","green_flower","0","0.702290076335878","0.41624","146","5","23","1","1","1","hockeypuck.jpg"
"6","grey_butterfly","2","green_flower","green_flower","1","0.704545454545455","0.711065","147","5","24","1","1","1","lantern03.jpg"
"6","grey_butterfly","2","green_flower","green_flower","1","0.706766917293233","0.65535","148","5","25","1","2","1","monarchbutterfly.jpg"
"6","grey_butterfly","2","red_flower","green_flower","0","0.701492537313433","0.8306","149","5","26","1","2","1","tulip02.jpg"
"6","white_butterfly","3","red_flower","red_flower","1","0.703703703703704","0.809935","150","5","27","1","2","1","jellyfish.jpg"
"6","grey_butterfly","5","green_flower","green_flower","1","0.705882352941177","1.79166","151","5","28","1","2","1","callbell.jpg"
"6","white_butterfly","5","red_flower","red_flower","1","0.708029197080292","0.807405","152","5","29","1","2","1","basketball01.jpg"
"6","grey_butterfly","4","green_flower","green_flower","1","0.710144927536232","0.50854","153","5","30","1","2","1","jokercard.jpg"
"6","white_butterfly","3","red_flower","red_flower","1","0.712230215827338","0.66645","154","5","31","1","2","1","soccerball.jpg"
"6","white_butterfly","5","red_flower","red_flower","1","0.714285714285714","0.59809","155","5","32","1","2","1","butterfly2.jpg"
