"","SubNum","butterfly","response","respFlower","corrFlower","accuracy","cumAcc","RT","trialNum","listN","NfromChange","befAft","befAft2","trialCond","image","recogAcc","confidence"
"16",2,"white_butterfly",4,"yellow_flower","blue_flower",0,0,0.89249,16,2,1,0,0,1,"handbrush02.jpg",1,2
"17",2,"white_butterfly",4,"green_flower","blue_flower",0,0,1.00008,17,2,2,0,0,1,"treadmill.jpg",1,4
"18",2,"grey_butterfly",2,"red_flower","red_flower",1,0.333333333333333,1.709635,18,2,3,0,0,1,"shower.jpg",0,3
"19",2,"white_butterfly",4,"blue_flower","blue_flower",1,0.5,0.429325,19,2,4,0,0,1,"skateboard.jpg",1,4
"20",2,"white_butterfly",3,"blue_flower","blue_flower",1,0.6,0.550235,20,2,5,0,0,1,"barrel01.jpg",1,4
"21",2,"white_butterfly",4,"blue_flower","blue_flower",1,0.666666666666667,0.936505,21,2,6,0,0,1,"xylophone.jpg",1,4
"22",2,"grey_butterfly",5,"red_flower","red_flower",1,0.714285714285714,0.984575,22,2,7,0,0,1,"forklift.jpg",0,1
"23",2,"grey_butterfly",4,"red_flower","red_flower",1,0.75,0.50491,23,2,8,0,0,1,"scalpel.jpg",1,1
"24",2,"white_butterfly",5,"blue_flower","blue_flower",1,0.777777777777778,0.67293,24,2,9,0,0,1,"sailboat.jpg",0,2
"25",2,"white_butterfly",2,"blue_flower","blue_flower",1,0.8,1.51986,25,2,10,0,0,1,"snowman.jpg",0,1
"26",2,"grey_butterfly",2,"red_flower","red_flower",1,0.818181818181818,0.72473,26,2,11,0,0,1,"stool01.jpg",1,4
"28",2,"white_butterfly",3,"blue_flower","blue_flower",1,0.846153846153846,1.63175,28,2,13,0,1,1,"desktopcomputer.jpg",0,1
"29",2,"white_butterfly",5,"red_flower","blue_flower",0,0.785714285714286,1.459175,29,2,14,0,1,1,"triangle.jpg",1,4
"30",2,"white_butterfly",5,"blue_flower","blue_flower",1,0.8,0.878775,30,2,15,0,1,1,"dartboard.jpg",1,3
"31",2,"grey_butterfly",5,"blue_flower","red_flower",0,0.75,0.782865,31,2,16,0,1,1,"electricguitar01.jpg",1,4
"32",2,"grey_butterfly",2,"red_flower","red_flower",1,0.764705882352941,1.115775,32,2,17,0,1,1,"doubledoors.jpg",1,4
"33",2,"grey_butterfly",5,"red_flower","red_flower",1,0.777777777777778,0.55015,33,2,18,0,1,1,"waterfountain02.jpg",0,3
"34",2,"grey_butterfly",3,"red_flower","red_flower",1,0.789473684210526,0.573515,34,2,19,1,1,1,"skiboot01a.jpg",1,4
"35",2,"grey_butterfly",3,"red_flower","red_flower",1,0.8,0.5883,35,2,20,1,1,1,"rockingchair.jpg",1,4
"36",2,"grey_butterfly",4,"red_flower","red_flower",1,0.80952380952381,1.24097,36,2,21,1,1,1,"trophy01.jpg",1,1
"37",2,"grey_butterfly",3,"red_flower","red_flower",1,0.818181818181818,0.988135,37,2,22,1,1,1,"fridge.jpg",0,2
"38",2,"white_butterfly",3,"blue_flower","blue_flower",1,0.826086956521739,0.48223,38,2,23,1,1,1,"filingcabinet.jpg",0,2
"39",2,"grey_butterfly",5,"red_flower","red_flower",1,0.833333333333333,1.285795,39,2,24,1,1,1,"crown.jpg",1,4
"40",2,"white_butterfly",4,"blue_flower","blue_flower",1,0.84,0.433035,40,2,25,1,2,1,"file.jpg",0,3
"41",2,"grey_butterfly",5,"red_flower","red_flower",1,0.846153846153846,0.870485,41,2,26,1,2,1,"blender.jpg",1,4
"42",2,"white_butterfly",3,"blue_flower","blue_flower",1,0.851851851851852,0.61911,42,2,27,1,2,1,"sandcastle.jpg",1,4
"43",2,"grey_butterfly",3,"red_flower","red_flower",1,0.857142857142857,0.616875,43,2,28,1,2,1,"crab01.jpg",1,4
"45",2,"grey_butterfly",4,"red_flower","red_flower",1,0.866666666666667,0.878635,45,2,30,1,2,1,"doghouse.jpg",0,2
"46",2,"white_butterfly",3,"blue_flower","blue_flower",1,0.870967741935484,1.05154,46,2,31,1,2,1,"chime.jpg",1,4
"47",2,"white_butterfly",2,"blue_flower","blue_flower",1,0.875,0.874645,47,2,32,1,2,1,"contactlens.jpg",0,2
"48",2,"white_butterfly",4,"blue_flower","blue_flower",1,0.878787878787879,1.315535,48,2,33,1,2,1,"snowglobe.jpg",0,2
"49",2,"grey_butterfly",5,"red_flower","red_flower",1,0.882352941176471,0.584235,49,2,34,1,2,1,"beerbottle.jpg",1,1
"50",2,"grey_butterfly",4,"red_flower","red_flower",1,0.885714285714286,1.285815,50,2,35,1,2,1,"salmon.jpg",0,2
"51",2,"white_butterfly",5,"blue_flower","blue_flower",1,0.888888888888889,1.362765,51,2,36,1,2,1,"microwave.jpg",1,4
"52",2,"white_butterfly",5,"blue_flower","green_flower",0,0.864864864864865,0.62419,52,3,1,0,0,1,"whiteout.jpg",1,4
"53",2,"white_butterfly",3,"red_flower","green_flower",0,0.842105263157895,1.803355,53,3,2,0,0,1,"dromedary.jpg",1,2
"54",2,"grey_butterfly",4,"red_flower","yellow_flower",0,0.82051282051282,1.698595,54,3,3,0,0,1,"cruiseship.jpg",1,4
"55",2,"white_butterfly",5,"red_flower","green_flower",0,0.8,1.9447,55,3,4,0,0,1,"rollerblade.jpg",1,4
"56",2,"grey_butterfly",5,"red_flower","yellow_flower",0,0.780487804878049,0.658165,56,3,5,0,0,1,"windshieldwiper02.jpg",1,3
"57",2,"white_butterfly",3,"blue_flower","green_flower",0,0.761904761904762,0.46175,57,3,6,0,0,1,"candycane01a.jpg",1,4
"58",2,"white_butterfly",4,"red_flower","green_flower",0,0.744186046511628,0.790395,58,3,7,0,0,1,"canoepaddle02.jpg",0,2
"59",2,"grey_butterfly",2,"red_flower","yellow_flower",0,0.727272727272727,1.33789,59,3,8,0,0,1,"hotdog.jpg",0,4
"60",2,"white_butterfly",3,"green_flower","green_flower",1,0.733333333333333,1.0858,60,3,9,0,0,1,"cactus.jpg",0,2
"61",2,"grey_butterfly",4,"green_flower","yellow_flower",0,0.717391304347826,1.10519,61,3,10,0,0,1,"bookshelf.jpg",1,4
"62",2,"white_butterfly",2,"green_flower","green_flower",1,0.723404255319149,0.651745,62,3,11,0,0,1,"bathtub.jpg",0,2
"63",2,"grey_butterfly",3,"yellow_flower","yellow_flower",1,0.729166666666667,0.67933,63,3,12,0,0,1,"spicerack.jpg",0,3
"64",2,"grey_butterfly",3,"yellow_flower","yellow_flower",1,0.73469387755102,0.601925,64,3,13,0,1,1,"stepladder.jpg",0,2
"65",2,"grey_butterfly",4,"yellow_flower","yellow_flower",1,0.74,0.51113,65,3,14,0,1,1,"snowshovel.jpg",1,4
"66",2,"white_butterfly",3,"green_flower","green_flower",1,0.745098039215686,1.296935,66,3,15,0,1,1,"seaturtle.jpg",0,1
"67",2,"white_butterfly",3,"green_flower","green_flower",1,0.75,0.50778,67,3,16,0,1,1,"winniethepooh.jpg",0,4
"68",2,"white_butterfly",3,"green_flower","green_flower",1,0.754716981132076,0.71595,68,3,17,0,1,1,"witchhat.jpg",1,3
"69",2,"grey_butterfly",3,"yellow_flower","yellow_flower",1,0.759259259259259,1.492595,69,3,18,0,1,1,"granolabar01.jpg",1,1
"70",2,"white_butterfly",5,"green_flower","green_flower",1,0.763636363636364,0.829085,70,3,19,1,1,1,"shovel01.jpg",1,4
"71",2,"white_butterfly",2,"green_flower","green_flower",1,0.767857142857143,0.564905,71,3,20,1,1,1,"fluorescentlightbulb.jpg",0,2
"72",2,"grey_butterfly",4,"green_flower","yellow_flower",0,0.754385964912281,1.48681,72,3,21,1,1,1,"urinal.jpg",1,4
"73",2,"grey_butterfly",2,"yellow_flower","yellow_flower",1,0.758620689655172,0.927935,73,3,22,1,1,1,"frisbee.jpg",0,4
"74",2,"grey_butterfly",3,"green_flower","yellow_flower",0,0.745762711864407,1.820445,74,3,23,1,1,1,"porcupine.jpg",0,3
"75",2,"white_butterfly",3,"green_flower","green_flower",1,0.75,0.623595,75,3,24,1,1,1,"showerhead01.jpg",1,3
"76",2,"white_butterfly",2,"green_flower","green_flower",1,0.754098360655738,0.67093,76,3,25,1,2,1,"handheldtelescope.jpg",0,2
"77",2,"grey_butterfly",5,"yellow_flower","yellow_flower",1,0.758064516129032,0.885565,77,3,26,1,2,1,"acorn.jpg",0,1
"78",2,"white_butterfly",4,"yellow_flower","green_flower",0,0.746031746031746,2.05171,78,3,27,1,2,1,"polarbear.jpg",0,2
"79",2,"white_butterfly",4,"green_flower","green_flower",1,0.75,1.99623,79,3,28,1,2,1,"pirateflag.jpg",1,1
"80",2,"grey_butterfly",2,"yellow_flower","yellow_flower",1,0.753846153846154,0.533265,80,3,29,1,2,1,"seagull.jpg",1,4
"81",2,"white_butterfly",2,"yellow_flower","green_flower",0,0.742424242424242,1.01428,81,3,30,1,2,1,"toyanimal05.jpg",1,1
"82",2,"grey_butterfly",4,"yellow_flower","yellow_flower",1,0.746268656716418,1.375635,82,3,31,1,2,1,"greywolf.jpg",1,4
"84",2,"grey_butterfly",4,"yellow_flower","yellow_flower",1,0.739130434782609,0.90394,84,3,33,1,2,1,"surfboard.jpg",0,4
"85",2,"white_butterfly",2,"green_flower","green_flower",1,0.742857142857143,0.53573,85,3,34,1,2,1,"donut.jpg",1,4
"86",2,"grey_butterfly",5,"yellow_flower","yellow_flower",1,0.746478873239437,1.4628,86,3,35,1,2,1,"apron.jpg",0,1
"87",2,"grey_butterfly",4,"yellow_flower","yellow_flower",1,0.75,1.26608,87,3,36,1,2,1,"footballhelmet.jpg",1,4
"88",2,"white_butterfly",2,"green_flower","yellow_flower",0,0.73972602739726,1.30201,88,4,1,0,0,1,"christmaslights.jpg",0,2
"89",2,"grey_butterfly",5,"yellow_flower","blue_flower",0,0.72972972972973,0.98994,89,4,2,0,0,1,"zebra.jpg",1,4
"90",2,"grey_butterfly",2,"yellow_flower","blue_flower",0,0.72,1.300615,90,4,3,0,0,1,"giraffe.jpg",1,4
"91",2,"white_butterfly",5,"red_flower","yellow_flower",0,0.710526315789474,1.59118,91,4,4,0,0,1,"mirror02.jpg",0,3
"92",2,"white_butterfly",2,"yellow_flower","yellow_flower",1,0.714285714285714,0.47343,92,4,5,0,0,1,"recyclingbin.jpg",0,2
"93",2,"white_butterfly",2,"yellow_flower","yellow_flower",1,0.717948717948718,0.7477,93,4,6,0,0,1,"fishingrod.jpg",0,2
"94",2,"white_butterfly",1,NA,"yellow_flower",0,0.708860759493671,NA,94,4,7,0,0,1,"barn.jpg",1,3
"95",2,"grey_butterfly",3,"blue_flower","blue_flower",1,0.7125,0.68313,95,4,8,0,0,1,"lightswitch01.jpg",0,3
"96",2,"grey_butterfly",2,"blue_flower","blue_flower",1,0.716049382716049,0.594555,96,4,9,0,0,1,"birdfeeder.jpg",0,1
"97",2,"white_butterfly",4,"blue_flower","yellow_flower",0,0.707317073170732,1.141275,97,4,10,0,0,1,"cannon.jpg",1,1
"98",2,"grey_butterfly",3,"blue_flower","blue_flower",1,0.710843373493976,1.21427,98,4,11,0,0,1,"coffeemachine.jpg",1,3
"99",2,"white_butterfly",4,"yellow_flower","yellow_flower",1,0.714285714285714,0.54188,99,4,12,0,0,1,"treestump.jpg",1,4
"100",2,"grey_butterfly",4,"yellow_flower","blue_flower",0,0.705882352941177,1.410895,100,4,13,0,1,1,"panda.jpg",0,3
"102",2,"grey_butterfly",5,"green_flower","blue_flower",0,0.701149425287356,1.430965,102,4,15,0,1,1,"cymbal.jpg",1,4
"103",2,"white_butterfly",5,"red_flower","yellow_flower",0,0.693181818181818,0.963465,103,4,16,0,1,1,"baseballglove.jpg",1,2
"104",2,"grey_butterfly",2,"green_flower","blue_flower",0,0.685393258426966,0.48198,104,4,17,0,1,1,"weddingcake.jpg",0,1
"105",2,"grey_butterfly",4,"yellow_flower","blue_flower",0,0.677777777777778,2.080305,105,4,18,0,1,1,"key07.jpg",0,1
"106",2,"white_butterfly",4,"yellow_flower","yellow_flower",1,0.681318681318681,1.288975,106,4,19,1,1,1,"tricycle.jpg",0,3
"107",2,"grey_butterfly",3,"blue_flower","blue_flower",1,0.684782608695652,0.65366,107,4,20,1,1,1,"escalator.jpg",0,4
"108",2,"grey_butterfly",5,"red_flower","blue_flower",0,0.67741935483871,0.8949,108,4,21,1,1,1,"volleyball.jpg",0,4
"109",2,"grey_butterfly",4,"yellow_flower","blue_flower",0,0.670212765957447,0.937155,109,4,22,1,1,1,"football.jpg",1,4
"110",2,"white_butterfly",2,"blue_flower","yellow_flower",0,0.663157894736842,0.7985,110,4,23,1,1,1,"windturbine.jpg",0,2
"111",2,"white_butterfly",5,"yellow_flower","yellow_flower",1,0.666666666666667,0.41246,111,4,24,1,1,1,"locomotive.jpg",1,2
"112",2,"white_butterfly",3,"yellow_flower","yellow_flower",1,0.670103092783505,1.045065,112,4,25,1,2,1,"bowlingpin.jpg",0,1
"113",2,"white_butterfly",3,"blue_flower","yellow_flower",0,0.663265306122449,0.58089,113,4,26,1,2,1,"musicstand.jpg",1,4
"114",2,"white_butterfly",5,"green_flower","yellow_flower",0,0.656565656565657,0.58993,114,4,27,1,2,1,"car.jpg",1,4
"115",2,"white_butterfly",3,"yellow_flower","yellow_flower",1,0.66,1.3527,115,4,28,1,2,1,"dreamcatcher.jpg",0,4
"116",2,"grey_butterfly",5,"blue_flower","blue_flower",1,0.663366336633663,0.80972,116,4,29,1,2,1,"table01.jpg",1,1
"117",2,"white_butterfly",3,"yellow_flower","yellow_flower",1,0.666666666666667,2.22833,117,4,30,1,2,1,"jaguar.jpg",1,4
"119",2,"grey_butterfly",4,"blue_flower","blue_flower",1,0.673076923076923,0.5278,119,4,32,1,2,1,"skihelmet01.jpg",1,1
"120",2,"white_butterfly",3,"blue_flower","yellow_flower",0,0.666666666666667,0.91649,120,4,33,1,2,1,"bleachers.jpg",0,3
"121",2,"grey_butterfly",4,"blue_flower","blue_flower",1,0.669811320754717,0.64138,121,4,34,1,2,1,"jackrabbit.jpg",0,1
"122",2,"grey_butterfly",3,"blue_flower","blue_flower",1,0.672897196261682,0.40585,122,4,35,1,2,1,"hulahoop.jpg",0,3
"123",2,"grey_butterfly",2,"blue_flower","blue_flower",1,0.675925925925926,0.656225,123,4,36,1,2,1,"dogsled.jpg",0,4
"124",2,"white_butterfly",2,"blue_flower","red_flower",0,0.669724770642202,0.967735,124,5,1,0,0,1,"trombone.jpg",1,4
"125",2,"white_butterfly",4,"blue_flower","red_flower",0,0.663636363636364,0.64404,125,5,2,0,0,1,"trafficlight.jpg",1,2
"126",2,"white_butterfly",2,"red_flower","red_flower",1,0.666666666666667,0.40177,126,5,3,0,0,1,"aquarium.jpg",0,2
"127",2,"white_butterfly",4,"red_flower","red_flower",1,0.669642857142857,0.414385,127,5,4,0,0,1,"dolphin01.jpg",0,2
"128",2,"white_butterfly",2,"red_flower","red_flower",1,0.672566371681416,0.867525,128,5,5,0,0,1,"battleaxe.jpg",0,4
"129",2,"white_butterfly",4,"red_flower","red_flower",1,0.675438596491228,0.735255,129,5,6,0,0,1,"cookingpot.jpg",1,4
"130",2,"white_butterfly",2,"red_flower","red_flower",1,0.678260869565217,0.729045,130,5,7,0,0,1,"star.jpg",0,4
"131",2,"grey_butterfly",4,"red_flower","green_flower",0,0.672413793103448,0.49439,131,5,8,0,0,1,"bacon.jpg",0,3
"132",2,"grey_butterfly",3,"green_flower","green_flower",1,0.675213675213675,0.49395,132,5,9,0,0,1,"golfball.jpg",0,2
"133",2,"grey_butterfly",5,"green_flower","green_flower",1,0.677966101694915,0.80376,133,5,10,0,0,1,"cuttlefish.jpg",1,4
"134",2,"grey_butterfly",2,"green_flower","green_flower",1,0.680672268907563,1.12459,134,5,11,0,0,1,"tent.jpg",0,1
"135",2,"white_butterfly",2,"red_flower","red_flower",1,0.683333333333333,0.84781,135,5,12,0,0,1,"chipmunk.jpg",1,4
"136",2,"grey_butterfly",5,"red_flower","green_flower",0,0.677685950413223,1.465835,136,5,13,0,1,1,"artichoke01b.jpg",0,1
"137",2,"grey_butterfly",3,"green_flower","green_flower",1,0.680327868852459,0.783045,137,5,14,0,1,1,"ipad02.jpg",0,4
"138",2,"grey_butterfly",2,"red_flower","green_flower",0,0.67479674796748,1.029815,138,5,15,0,1,1,"cloud.jpg",0,3
"140",2,"grey_butterfly",4,"green_flower","green_flower",1,0.68,0.57826,140,5,17,0,1,1,"lionstatue.jpg",0,3
"141",2,"white_butterfly",5,"red_flower","red_flower",1,0.682539682539683,0.570575,141,5,18,0,1,1,"ironingboard01.jpg",1,4
"142",2,"grey_butterfly",3,"red_flower","green_flower",0,0.677165354330709,0.92147,142,5,19,1,1,1,"cork02.jpg",0,2
"143",2,"white_butterfly",4,"red_flower","red_flower",1,0.6796875,0.63404,143,5,20,1,1,1,"hockeystick.jpg",1,4
"144",2,"grey_butterfly",3,"red_flower","green_flower",0,0.674418604651163,1.846125,144,5,21,1,1,1,"asianelephant.jpg",1,4
"145",2,"white_butterfly",5,"red_flower","red_flower",1,0.676923076923077,0.46506,145,5,22,1,1,1,"jeans01.jpg",0,4
"146",2,"grey_butterfly",4,"blue_flower","green_flower",0,0.67175572519084,0.496185,146,5,23,1,1,1,"hockeypuck.jpg",0,2
"147",2,"grey_butterfly",2,"green_flower","green_flower",1,0.674242424242424,1.40526,147,5,24,1,1,1,"lantern03.jpg",0,1
"148",2,"grey_butterfly",2,"green_flower","green_flower",1,0.676691729323308,0.915635,148,5,25,1,2,1,"monarchbutterfly.jpg",1,4
"149",2,"grey_butterfly",3,"green_flower","green_flower",1,0.67910447761194,1.775295,149,5,26,1,2,1,"tulip02.jpg",0,4
"150",2,"white_butterfly",3,"red_flower","red_flower",1,0.681481481481481,0.597195,150,5,27,1,2,1,"jellyfish.jpg",0,2
"151",2,"grey_butterfly",5,"green_flower","green_flower",1,0.683823529411765,0.9263,151,5,28,1,2,1,"callbell.jpg",1,1
"152",2,"white_butterfly",4,"yellow_flower","red_flower",0,0.678832116788321,0.627615,152,5,29,1,2,1,"basketball01.jpg",1,4
"153",2,"grey_butterfly",4,"green_flower","green_flower",1,0.681159420289855,0.88368,153,5,30,1,2,1,"jokercard.jpg",0,1
"154",2,"white_butterfly",3,"red_flower","red_flower",1,0.683453237410072,0.80648,154,5,31,1,2,1,"soccerball.jpg",1,4
"156",2,"grey_butterfly",2,"green_flower","green_flower",1,0.680851063829787,0.863775,156,5,33,1,2,1,"eyepatch.jpg",1,4
"157",2,"white_butterfly",3,"red_flower","red_flower",1,0.683098591549296,1.72846,157,5,34,1,2,1,"cashregister01.jpg",1,1
"158",2,"white_butterfly",2,"green_flower","red_flower",0,0.678321678321678,0.887335,158,5,35,1,2,1,"balcony02.jpg",0,3
"159",2,"grey_butterfly",3,"green_flower","green_flower",1,0.680555555555556,1.71096,159,5,36,1,2,1,"fingerprint.jpg",0,4
"175",3,"white_butterfly",3,"blue_flower","blue_flower",1,1,1.24,16,2,1,0,0,1,"treestump.jpg",1,3
"176",3,"white_butterfly",5,"red_flower","blue_flower",0,0.5,0.906,17,2,2,0,0,1,"spicerack.jpg",0,2
"177",3,"grey_butterfly",2,"red_flower","red_flower",1,0.666666666666667,0.996,18,2,3,0,0,1,"football.jpg",0,1
"178",3,"white_butterfly",4,"blue_flower","blue_flower",1,0.75,0.627,19,2,4,0,0,1,"bowlingpin.jpg",1,3
"179",3,"white_butterfly",3,"blue_flower","blue_flower",1,0.8,0.487,20,2,5,0,0,1,"beerbottle.jpg",0,1
"180",3,"white_butterfly",4,"blue_flower","blue_flower",1,0.833333333333333,0.493,21,2,6,0,0,1,"key07.jpg",1,1
"181",3,"grey_butterfly",5,"red_flower","red_flower",1,0.857142857142857,1.105,22,2,7,0,0,1,"moon.jpg",1,4
"182",3,"grey_butterfly",4,"red_flower","red_flower",1,0.875,0.971,23,2,8,0,0,1,"exitsign.jpg",0,3
"183",3,"white_butterfly",5,"blue_flower","blue_flower",1,0.888888888888889,0.978,24,2,9,0,0,1,"wheelchair.jpg",0,2
"184",3,"white_butterfly",2,"blue_flower","blue_flower",1,0.9,0.873,25,2,10,0,0,1,"file.jpg",0,1
"185",3,"grey_butterfly",2,"red_flower","red_flower",1,0.909090909090909,1.23,26,2,11,0,0,1,"pirateflag.jpg",0,3
"187",3,"white_butterfly",3,"blue_flower","blue_flower",1,0.923076923076923,0.655,28,2,13,0,1,1,"seagull.jpg",1,4
"188",3,"white_butterfly",4,"blue_flower","blue_flower",1,0.928571428571429,1.867,29,2,14,0,1,1,"fluorescentlightbulb.jpg",1,4
"189",3,"white_butterfly",5,"blue_flower","blue_flower",1,0.933333333333333,1.586,30,2,15,0,1,1,"xylophone.jpg",0,1
"190",3,"grey_butterfly",3,"red_flower","red_flower",1,0.9375,1.417,31,2,16,0,1,1,"basketball01.jpg",0,2
"191",3,"grey_butterfly",5,"blue_flower","red_flower",0,0.882352941176471,0.853,32,2,17,0,1,1,"shelves.jpg",0,2
"192",3,"grey_butterfly",5,"red_flower","red_flower",1,0.888888888888889,1.146,33,2,18,0,1,1,"cork02.jpg",0,2
"193",3,"grey_butterfly",3,"red_flower","red_flower",1,0.894736842105263,0.489,34,2,19,1,1,1,"cloud.jpg",1,3
"194",3,"grey_butterfly",3,"red_flower","red_flower",1,0.9,0.764,35,2,20,1,1,1,"beaver.jpg",1,3
"195",3,"grey_butterfly",5,"blue_flower","red_flower",0,0.857142857142857,0.703,36,2,21,1,1,1,"urinal.jpg",1,1
"196",3,"grey_butterfly",3,"red_flower","red_flower",1,0.863636363636364,0.578,37,2,22,1,1,1,"tulip02.jpg",1,4
"197",3,"white_butterfly",3,"blue_flower","blue_flower",1,0.869565217391304,0.483,38,2,23,1,1,1,"horse.jpg",1,4
"198",3,"grey_butterfly",5,"red_flower","red_flower",1,0.875,0.54,39,2,24,1,1,1,"musicstand.jpg",1,1
"199",3,"white_butterfly",4,"blue_flower","blue_flower",1,0.88,1,40,2,25,1,2,1,"frisbee.jpg",1,2
"200",3,"grey_butterfly",5,"red_flower","red_flower",1,0.884615384615385,0.804,41,2,26,1,2,1,"footballhelmet.jpg",0,2
"201",3,"white_butterfly",3,"blue_flower","blue_flower",1,0.888888888888889,1,42,2,27,1,2,1,"soccerball.jpg",0,3
"202",3,"grey_butterfly",3,"red_flower","red_flower",1,0.892857142857143,0.743,43,2,28,1,2,1,"windshieldwiper02.jpg",1,4
"203",3,"white_butterfly",4,"blue_flower","blue_flower",1,0.896551724137931,1.413,44,2,29,1,2,1,"windturbine.jpg",0,1
"205",3,"white_butterfly",3,"blue_flower","blue_flower",1,0.903225806451613,0.892,46,2,31,1,2,1,"blender.jpg",0,3
"206",3,"white_butterfly",2,"blue_flower","blue_flower",1,0.90625,0.817,47,2,32,1,2,1,"rockingchair.jpg",0,1
"207",3,"white_butterfly",4,"blue_flower","blue_flower",1,0.909090909090909,0.925,48,2,33,1,2,1,"desktopcomputer.jpg",1,3
"208",3,"grey_butterfly",5,"red_flower","red_flower",1,0.911764705882353,0.761,49,2,34,1,2,1,"tricycle.jpg",0,1
"209",3,"grey_butterfly",4,"red_flower","red_flower",1,0.914285714285714,1.084,50,2,35,1,2,1,"dreamcatcher.jpg",1,1
"210",3,"white_butterfly",5,"blue_flower","blue_flower",1,0.916666666666667,0.594,51,2,36,1,2,1,"contactlens.jpg",1,3
"211",3,"white_butterfly",5,"blue_flower","green_flower",0,0.891891891891892,0.973,52,3,1,0,0,1,"sailboat.jpg",1,1
"212",3,"white_butterfly",5,"blue_flower","green_flower",0,0.868421052631579,0.454,53,3,2,0,0,1,"asianelephant.jpg",1,4
"213",3,"grey_butterfly",4,"red_flower","yellow_flower",0,0.846153846153846,0.672,54,3,3,0,0,1,"triangle.jpg",0,2
"214",3,"white_butterfly",3,"blue_flower","green_flower",0,0.825,1.211,55,3,4,0,0,1,"redonion.jpg",1,4
"215",3,"grey_butterfly",5,"red_flower","yellow_flower",0,0.804878048780488,0.527,56,3,5,0,0,1,"acorn.jpg",1,4
"216",3,"white_butterfly",3,"blue_flower","green_flower",0,0.785714285714286,0.583,57,3,6,0,0,1,"communitymailbox.jpg",1,4
"217",3,"white_butterfly",3,"blue_flower","green_flower",0,0.767441860465116,0.802,58,3,7,0,0,1,"handheldtelescope.jpg",0,2
"218",3,"grey_butterfly",2,"red_flower","yellow_flower",0,0.75,1.264,59,3,8,0,0,1,"callbell.jpg",1,3
"219",3,"white_butterfly",3,"green_flower","green_flower",1,0.755555555555556,0.488,60,3,9,0,0,1,"candycane01a.jpg",0,2
"220",3,"grey_butterfly",2,"yellow_flower","yellow_flower",1,0.760869565217391,0.692,61,3,10,0,0,1,"coffeemaker.jpg",0,2
"221",3,"white_butterfly",3,"yellow_flower","green_flower",0,0.74468085106383,0.904,62,3,11,0,0,1,"electricguitar01.jpg",0,1
"222",3,"grey_butterfly",3,"yellow_flower","yellow_flower",1,0.75,0.986,63,3,12,0,0,1,"weddingcake.jpg",1,1
"223",3,"grey_butterfly",3,"yellow_flower","yellow_flower",1,0.755102040816326,0.682,64,3,13,0,1,1,"balcony02.jpg",0,2
"224",3,"grey_butterfly",4,"yellow_flower","yellow_flower",1,0.76,0.54,65,3,14,0,1,1,"cashregister01.jpg",1,1
"225",3,"white_butterfly",3,"green_flower","green_flower",1,0.764705882352941,0.491,66,3,15,0,1,1,"doubledoors.jpg",1,2
"227",3,"white_butterfly",4,"blue_flower","green_flower",0,0.754716981132076,0.838,68,3,17,0,1,1,"waterfountain02.jpg",0,3
"228",3,"grey_butterfly",3,"yellow_flower","yellow_flower",1,0.759259259259259,1.375,69,3,18,0,1,1,"panda.jpg",1,4
"229",3,"white_butterfly",5,"green_flower","green_flower",1,0.763636363636364,1.566,70,3,19,1,1,1,"greywolf.jpg",1,4
"230",3,"white_butterfly",3,"yellow_flower","green_flower",0,0.75,2.1,71,3,20,1,1,1,"forklift.jpg",0,2
"231",3,"grey_butterfly",4,"green_flower","yellow_flower",0,0.736842105263158,0.684,72,3,21,1,1,1,"barrel01.jpg",0,2
"232",3,"grey_butterfly",2,"yellow_flower","yellow_flower",1,0.741379310344828,0.567,73,3,22,1,1,1,"fingerprint.jpg",1,4
"233",3,"grey_butterfly",4,"yellow_flower","yellow_flower",1,0.745762711864407,1.852,74,3,23,1,1,1,"bacon.jpg",1,4
"234",3,"white_butterfly",3,"green_flower","green_flower",1,0.75,1.563,75,3,24,1,1,1,"witchhat.jpg",0,3
"235",3,"white_butterfly",5,"yellow_flower","green_flower",0,0.737704918032787,0.865,76,3,25,1,2,1,"hotdog.jpg",1,4
"236",3,"grey_butterfly",5,"yellow_flower","yellow_flower",1,0.741935483870968,1.447,77,3,26,1,2,1,"jeans01.jpg",0,2
"237",3,"white_butterfly",3,"green_flower","green_flower",1,0.746031746031746,0.486,78,3,27,1,2,1,"shovel01.jpg",1,2
"238",3,"white_butterfly",1,NA,"green_flower",0,0.734375,NA,79,3,28,1,2,1,"skihelmet01.jpg",0,2
"239",3,"grey_butterfly",2,"yellow_flower","yellow_flower",1,0.738461538461539,1.019,80,3,29,1,2,1,"duck01.jpg",0,2
"240",3,"white_butterfly",4,"green_flower","green_flower",1,0.742424242424242,0.726,81,3,30,1,2,1,"vacuumcleaner01.jpg",0,2
"241",3,"grey_butterfly",4,"yellow_flower","yellow_flower",1,0.746268656716418,1.626,82,3,31,1,2,1,"chime.jpg",0,2
"242",3,"grey_butterfly",2,"yellow_flower","yellow_flower",1,0.75,0.807,83,3,32,1,2,1,"chipmunk.jpg",1,4
"244",3,"white_butterfly",2,"green_flower","green_flower",1,0.757142857142857,0.997,85,3,34,1,2,1,"jellyfish.jpg",1,4
"245",3,"grey_butterfly",5,"yellow_flower","yellow_flower",1,0.76056338028169,1.581,86,3,35,1,2,1,"apron.jpg",0,2
"246",3,"grey_butterfly",4,"yellow_flower","yellow_flower",1,0.763888888888889,0.584,87,3,36,1,2,1,"scalpel.jpg",1,4
"247",3,"white_butterfly",2,"green_flower","yellow_flower",0,0.753424657534247,1.348,88,4,1,0,0,1,"monarchbutterfly.jpg",1,2
"248",3,"grey_butterfly",5,"yellow_flower","blue_flower",0,0.743243243243243,0.57,89,4,2,0,0,1,"baseballglove.jpg",0,1
"249",3,"grey_butterfly",2,"yellow_flower","blue_flower",0,0.733333333333333,2.284,90,4,3,0,0,1,"granolabar01.jpg",1,2
"250",3,"white_butterfly",4,"green_flower","yellow_flower",0,0.723684210526316,0.547,91,4,4,0,0,1,"hockeypuck.jpg",0,2
"251",3,"white_butterfly",5,"green_flower","yellow_flower",0,0.714285714285714,2.283,92,4,5,0,0,1,"bookshelf.jpg",0,1
"252",3,"white_butterfly",2,"yellow_flower","yellow_flower",1,0.717948717948718,0.547,93,4,6,0,0,1,"gps.jpg",1,1
"253",3,"white_butterfly",4,"yellow_flower","yellow_flower",1,0.721518987341772,1.054,94,4,7,0,0,1,"porcupine.jpg",1,3
"254",3,"grey_butterfly",3,"blue_flower","blue_flower",1,0.725,1.186,95,4,8,0,0,1,"giraffe.jpg",1,2
"255",3,"grey_butterfly",2,"blue_flower","blue_flower",1,0.728395061728395,0.588,96,4,9,0,0,1,"toyanimal05.jpg",1,4
"256",3,"white_butterfly",5,"yellow_flower","yellow_flower",1,0.731707317073171,1.796,97,4,10,0,0,1,"hulahoop.jpg",0,1
"257",3,"grey_butterfly",4,"green_flower","blue_flower",0,0.72289156626506,1.875,98,4,11,0,0,1,"treadmill.jpg",0,2
"258",3,"white_butterfly",4,"yellow_flower","yellow_flower",1,0.726190476190476,1.404,99,4,12,0,0,1,"volleyball.jpg",0,2
"259",3,"grey_butterfly",3,"blue_flower","blue_flower",1,0.729411764705882,0.487,100,4,13,0,1,1,"whiteout.jpg",1,4
"261",3,"grey_butterfly",4,"blue_flower","blue_flower",1,0.735632183908046,1.245,102,4,15,0,1,1,"sandcastle.jpg",1,3
"262",3,"white_butterfly",3,"green_flower","yellow_flower",0,0.727272727272727,1.186,103,4,16,0,1,1,"ironingboard01.jpg",0,2
"263",3,"grey_butterfly",4,"blue_flower","blue_flower",1,0.730337078651685,1.569,104,4,17,0,1,1,"cookingpot.jpg",0,3
"264",3,"grey_butterfly",5,"blue_flower","blue_flower",1,0.733333333333333,0.598,105,4,18,0,1,1,"snowglobe.jpg",0,2
"265",3,"white_butterfly",4,"yellow_flower","yellow_flower",1,0.736263736263736,1.571,106,4,19,1,1,1,"jaguar.jpg",1,3
"266",3,"grey_butterfly",3,"blue_flower","blue_flower",1,0.739130434782609,0.494,107,4,20,1,1,1,"escalator.jpg",1,4
"267",3,"grey_butterfly",4,"blue_flower","blue_flower",1,0.741935483870968,0.581,108,4,21,1,1,1,"surfboard.jpg",1,4
"268",3,"grey_butterfly",2,"blue_flower","blue_flower",1,0.74468085106383,0.735,109,4,22,1,1,1,"winniethepooh.jpg",1,4
"269",3,"white_butterfly",4,"green_flower","yellow_flower",0,0.736842105263158,1.736,110,4,23,1,1,1,"lantern03.jpg",0,3
"270",3,"white_butterfly",5,"yellow_flower","yellow_flower",1,0.739583333333333,0.499,111,4,24,1,1,1,"polarbear.jpg",1,4
"271",3,"white_butterfly",3,"yellow_flower","yellow_flower",1,0.742268041237113,2.04,112,4,25,1,2,1,"microwave.jpg",0,2
"272",3,"white_butterfly",4,"yellow_flower","yellow_flower",1,0.744897959183674,0.432,113,4,26,1,2,1,"dalmatian.jpg",1,4
"273",3,"white_butterfly",2,"yellow_flower","yellow_flower",1,0.747474747474748,0.702,114,4,27,1,2,1,"trafficlight.jpg",1,4
"274",3,"white_butterfly",3,"yellow_flower","yellow_flower",1,0.75,0.472,115,4,28,1,2,1,"birdfeeder.jpg",1,2
"275",3,"grey_butterfly",5,"blue_flower","blue_flower",1,0.752475247524752,1.547,116,4,29,1,2,1,"golfball.jpg",0,3
"277",3,"white_butterfly",3,"yellow_flower","yellow_flower",1,0.757281553398058,0.53,118,4,31,1,2,1,"handbrush02.jpg",0,3
"278",3,"grey_butterfly",4,"blue_flower","blue_flower",1,0.759615384615385,1.184,119,4,32,1,2,1,"dogsled.jpg",1,4
"279",3,"white_butterfly",3,"blue_flower","yellow_flower",0,0.752380952380952,1.677,120,4,33,1,2,1,"seaturtle.jpg",1,4
"280",3,"grey_butterfly",4,"blue_flower","blue_flower",1,0.754716981132076,0.805,121,4,34,1,2,1,"canoepaddle02.jpg",0,2
"281",3,"grey_butterfly",3,"blue_flower","blue_flower",1,0.757009345794392,0.435,122,4,35,1,2,1,"trophy01.jpg",1,1
"282",3,"grey_butterfly",2,"blue_flower","blue_flower",1,0.759259259259259,1.054,123,4,36,1,2,1,"donut.jpg",1,4
"283",3,"white_butterfly",1,NA,"red_flower",0,0.752293577981651,NA,124,5,1,0,0,1,"artichoke01b.jpg",1,4
"284",3,"white_butterfly",5,"yellow_flower","red_flower",0,0.745454545454545,1.129,125,5,2,0,0,1,"lintroller.jpg",1,4
"285",3,"white_butterfly",2,"red_flower","red_flower",1,0.747747747747748,0.503,126,5,3,0,0,1,"fridge.jpg",0,2
"286",3,"white_butterfly",4,"red_flower","red_flower",1,0.75,0.449,127,5,4,0,0,1,"shower.jpg",1,4
"287",3,"white_butterfly",2,"red_flower","red_flower",1,0.752212389380531,0.619,128,5,5,0,0,1,"zebra.jpg",1,4
"288",3,"white_butterfly",4,"red_flower","red_flower",1,0.754385964912281,0.467,129,5,6,0,0,1,"jokercard.jpg",1,4
"289",3,"white_butterfly",2,"red_flower","red_flower",1,0.756521739130435,0.843,130,5,7,0,0,1,"recyclingbin.jpg",1,4
"290",3,"grey_butterfly",2,"blue_flower","green_flower",0,0.75,1.145,131,5,8,0,0,1,"aquarium.jpg",1,4
"291",3,"grey_butterfly",3,"green_flower","green_flower",1,0.752136752136752,0.469,132,5,9,0,0,1,"skiboot01a.jpg",0,1
"292",3,"grey_butterfly",5,"green_flower","green_flower",1,0.754237288135593,0.529,133,5,10,0,0,1,"cuttlefish.jpg",1,4
"293",3,"grey_butterfly",2,"green_flower","green_flower",1,0.756302521008403,0.536,134,5,11,0,0,1,"stool01.jpg",1,2
"294",3,"white_butterfly",4,"blue_flower","red_flower",0,0.75,1.964,135,5,12,0,0,1,"pumpkin.jpg",1,4
"295",3,"grey_butterfly",1,NA,"green_flower",0,0.743801652892562,NA,136,5,13,0,1,1,"mirror02.jpg",0,1
"296",3,"grey_butterfly",4,"blue_flower","green_flower",0,0.737704918032787,0.979,137,5,14,0,1,1,"crab01.jpg",1,1
"298",3,"white_butterfly",3,"green_flower","red_flower",0,0.733870967741935,0.511,139,5,16,0,1,1,"fishskeleton.jpg",1,4
"299",3,"grey_butterfly",1,NA,"green_flower",0,0.728,NA,140,5,17,0,1,1,"jackrabbit.jpg",1,4
"300",3,"white_butterfly",5,"red_flower","red_flower",1,0.73015873015873,1.662,141,5,18,0,1,1,"dartboard.jpg",1,1
"301",3,"grey_butterfly",5,"green_flower","green_flower",1,0.732283464566929,0.868,142,5,19,1,1,1,"brownsugar.jpg",1,4
"302",3,"white_butterfly",4,"red_flower","red_flower",1,0.734375,1.268,143,5,20,1,1,1,"cremebrulee.jpg",1,4
"303",3,"grey_butterfly",3,"red_flower","green_flower",0,0.728682170542636,0.574,144,5,21,1,1,1,"doghouse.jpg",0,1
"304",3,"white_butterfly",5,"red_flower","red_flower",1,0.730769230769231,0.58,145,5,22,1,1,1,"filingcabinet.jpg",1,2
"305",3,"grey_butterfly",5,"green_flower","green_flower",1,0.732824427480916,0.561,146,5,23,1,1,1,"hockeystick.jpg",1,2
"306",3,"grey_butterfly",2,"green_flower","green_flower",1,0.734848484848485,0.897,147,5,24,1,1,1,"bolt01a.jpg",0,1
"307",3,"grey_butterfly",2,"green_flower","green_flower",1,0.736842105263158,0.734,148,5,25,1,2,1,"ipad02.jpg",1,4
"308",3,"grey_butterfly",3,"green_flower","green_flower",1,0.738805970149254,0.447,149,5,26,1,2,1,"cannon.jpg",0,1
"309",3,"white_butterfly",4,"green_flower","red_flower",0,0.733333333333333,0.928,150,5,27,1,2,1,"bathtub.jpg",0,2
"310",3,"grey_butterfly",5,"green_flower","green_flower",1,0.735294117647059,0.501,151,5,28,1,2,1,"cactus.jpg",1,4
"311",3,"white_butterfly",5,"red_flower","red_flower",1,0.737226277372263,1.376,152,5,29,1,2,1,"lionstatue.jpg",0,1
"312",3,"grey_butterfly",4,"green_flower","green_flower",1,0.739130434782609,0.953,153,5,30,1,2,1,"locomotive.jpg",0,2
"313",3,"white_butterfly",3,"red_flower","red_flower",1,0.741007194244604,1.387,154,5,31,1,2,1,"stepladder.jpg",0,1
"315",3,"grey_butterfly",2,"green_flower","green_flower",1,0.74468085106383,1.294,156,5,33,1,2,1,"battleaxe.jpg",0,1
"316",3,"white_butterfly",3,"red_flower","red_flower",1,0.746478873239437,0.802,157,5,34,1,2,1,"crown.jpg",0,3
"317",3,"white_butterfly",2,"green_flower","red_flower",0,0.741258741258741,0.423,158,5,35,1,2,1,"snowshovel.jpg",0,1
"318",3,"grey_butterfly",3,"green_flower","green_flower",1,0.743055555555556,0.533,159,5,36,1,2,1,"lightswitch01.jpg",0,3
"334",4,"white_butterfly",3,"blue_flower","blue_flower",1,1,0.51924,16,2,1,0,0,1,"cashregister01.jpg",0,1
"335",4,"white_butterfly",3,"blue_flower","blue_flower",1,1,0.73091,17,2,2,0,0,1,"file.jpg",0,1
"336",4,"grey_butterfly",2,"red_flower","red_flower",1,1,0.92822,18,2,3,0,0,1,"scalpel.jpg",0,3
"337",4,"white_butterfly",4,"blue_flower","blue_flower",1,1,0.722665,19,2,4,0,0,1,"car.jpg",0,3
"338",4,"white_butterfly",3,"blue_flower","blue_flower",1,1,0.41465,20,2,5,0,0,1,"forklift.jpg",0,1
"339",4,"white_butterfly",4,"blue_flower","blue_flower",1,1,0.915695,21,2,6,0,0,1,"snowglobe.jpg",0,4
"340",4,"grey_butterfly",5,"red_flower","red_flower",1,1,0.370545,22,2,7,0,0,1,"rollerblade.jpg",0,1
"341",4,"grey_butterfly",4,"red_flower","red_flower",1,1,0.446875,23,2,8,0,0,1,"treestump.jpg",0,1
"342",4,"white_butterfly",5,"blue_flower","blue_flower",1,1,0.543155,24,2,9,0,0,1,"tricycle.jpg",0,2
"343",4,"white_butterfly",2,"blue_flower","blue_flower",1,1,0.674425,25,2,10,0,0,1,"beaver.jpg",0,2
"344",4,"grey_butterfly",2,"red_flower","red_flower",1,1,1.250975,26,2,11,0,0,1,"fridge.jpg",1,3
"345",4,"grey_butterfly",3,"red_flower","red_flower",1,1,0.5513,27,2,12,0,0,1,"moon.jpg",1,4
"346",4,"white_butterfly",3,"blue_flower","blue_flower",1,1,0.84304,28,2,13,0,1,1,"bowlingpin.jpg",0,3
"347",4,"white_butterfly",4,"blue_flower","blue_flower",1,1,0.5805,29,2,14,0,1,1,"dolphin01.jpg",1,3
"349",4,"grey_butterfly",3,"red_flower","red_flower",1,1,0.73685,31,2,16,0,1,1,"sandcastle.jpg",0,1
"350",4,"grey_butterfly",2,"red_flower","red_flower",1,1,0.53238,32,2,17,0,1,1,"mirror02.jpg",0,1
"351",4,"grey_butterfly",5,"red_flower","red_flower",1,1,0.86076,33,2,18,0,1,1,"bacon.jpg",0,2
"352",4,"grey_butterfly",3,"red_flower","red_flower",1,1,0.37242,34,2,19,1,1,1,"triangle.jpg",1,4
"353",4,"grey_butterfly",3,"red_flower","red_flower",1,1,1.11447,35,2,20,1,1,1,"jokercard.jpg",1,4
"354",4,"grey_butterfly",4,"red_flower","red_flower",1,1,0.5596,36,2,21,1,1,1,"bookshelf.jpg",0,1
"355",4,"grey_butterfly",3,"red_flower","red_flower",1,1,0.671855,37,2,22,1,1,1,"jeans01.jpg",0,1
"356",4,"white_butterfly",3,"blue_flower","blue_flower",1,1,0.456455,38,2,23,1,1,1,"dogsled.jpg",0,3
"357",4,"grey_butterfly",5,"red_flower","red_flower",1,1,0.65525,39,2,24,1,1,1,"artichoke01b.jpg",1,4
"358",4,"white_butterfly",4,"blue_flower","blue_flower",1,1,0.432845,40,2,25,1,2,1,"gong.jpg",0,3
"359",4,"grey_butterfly",5,"red_flower","red_flower",1,1,0.658255,41,2,26,1,2,1,"exitsign.jpg",1,4
"360",4,"white_butterfly",3,"blue_flower","blue_flower",1,1,0.37628,42,2,27,1,2,1,"zebra.jpg",1,4
"361",4,"grey_butterfly",3,"red_flower","red_flower",1,1,0.88853,43,2,28,1,2,1,"apron.jpg",0,2
"362",4,"white_butterfly",4,"blue_flower","blue_flower",1,1,0.55361,44,2,29,1,2,1,"dalmatian.jpg",1,2
"364",4,"white_butterfly",3,"blue_flower","blue_flower",1,1,0.517955,46,2,31,1,2,1,"whiteout.jpg",1,4
"365",4,"white_butterfly",2,"blue_flower","blue_flower",1,1,0.63592,47,2,32,1,2,1,"star.jpg",1,3
"366",4,"white_butterfly",4,"blue_flower","blue_flower",1,1,1.11477,48,2,33,1,2,1,"golfball.jpg",0,1
"367",4,"grey_butterfly",5,"red_flower","red_flower",1,1,0.46461,49,2,34,1,2,1,"skateboard.jpg",1,4
"368",4,"grey_butterfly",4,"red_flower","red_flower",1,1,0.456285,50,2,35,1,2,1,"crab01.jpg",0,2
"369",4,"white_butterfly",5,"blue_flower","blue_flower",1,1,0.83676,51,2,36,1,2,1,"snowman.jpg",1,4
"370",4,"white_butterfly",5,"blue_flower","green_flower",0,0.972972972972973,0.4463,52,3,1,0,0,1,"cork02.jpg",1,4
"371",4,"white_butterfly",5,"blue_flower","green_flower",0,0.947368421052632,0.781565,53,3,2,0,0,1,"trombone.jpg",1,3
"372",4,"grey_butterfly",4,"red_flower","yellow_flower",0,0.923076923076923,0.59303,54,3,3,0,0,1,"electricguitar01.jpg",0,2
"373",4,"white_butterfly",3,"blue_flower","green_flower",0,0.9,1.689215,55,3,4,0,0,1,"hockeypuck.jpg",0,2
"374",4,"grey_butterfly",3,"yellow_flower","yellow_flower",1,0.902439024390244,1.03229,56,3,5,0,0,1,"sailboat.jpg",1,1
"375",4,"white_butterfly",2,"green_flower","green_flower",1,0.904761904761905,1.00815,57,3,6,0,0,1,"surfboard.jpg",1,3
"376",4,"white_butterfly",5,"green_flower","green_flower",1,0.906976744186046,0.442635,58,3,7,0,0,1,"desktopcomputer.jpg",1,3
"377",4,"grey_butterfly",4,"yellow_flower","yellow_flower",1,0.909090909090909,1.553955,59,3,8,0,0,1,"baseballglove.jpg",0,2
"378",4,"white_butterfly",3,"green_flower","green_flower",1,0.911111111111111,1.92374,60,3,9,0,0,1,"bolt01a.jpg",1,3
"379",4,"grey_butterfly",2,"yellow_flower","yellow_flower",1,0.91304347826087,0.72363,61,3,10,0,0,1,"spicerack.jpg",0,3
"380",4,"white_butterfly",2,"green_flower","green_flower",1,0.914893617021277,1.312015,62,3,11,0,0,1,"hockeystick.jpg",1,3
"381",4,"grey_butterfly",3,"yellow_flower","yellow_flower",1,0.916666666666667,0.407265,63,3,12,0,0,1,"ipad02.jpg",0,1
"382",4,"grey_butterfly",3,"yellow_flower","yellow_flower",1,0.918367346938776,0.86083,64,3,13,0,1,1,"locomotive.jpg",0,1
"383",4,"grey_butterfly",4,"yellow_flower","yellow_flower",1,0.92,0.641405,65,3,14,0,1,1,"lintroller.jpg",0,1
"385",4,"white_butterfly",3,"green_flower","green_flower",1,0.923076923076923,0.482755,67,3,16,0,1,1,"coffeemachine.jpg",1,4
"386",4,"white_butterfly",3,"green_flower","green_flower",1,0.924528301886792,1.26918,68,3,17,0,1,1,"asianelephant.jpg",1,3
"387",4,"grey_butterfly",3,"yellow_flower","yellow_flower",1,0.925925925925926,0.88176,69,3,18,0,1,1,"showerhead01.jpg",1,2
"388",4,"white_butterfly",5,"green_flower","green_flower",1,0.927272727272727,0.78644,70,3,19,1,1,1,"snowshovel.jpg",1,1
"389",4,"white_butterfly",2,"green_flower","green_flower",1,0.928571428571429,0.686885,71,3,20,1,1,1,"hulahoop.jpg",1,4
"390",4,"grey_butterfly",2,"yellow_flower","yellow_flower",1,0.929824561403509,1.593215,72,3,21,1,1,1,"gps.jpg",0,2
"391",4,"grey_butterfly",2,"yellow_flower","yellow_flower",1,0.931034482758621,0.36861,73,3,22,1,1,1,"treadmill.jpg",0,1
"392",4,"grey_butterfly",3,"green_flower","yellow_flower",0,0.915254237288136,2.294115,74,3,23,1,1,1,"tie02.jpg",0,2
"393",4,"white_butterfly",3,"green_flower","green_flower",1,0.916666666666667,0.50349,75,3,24,1,1,1,"contactlens.jpg",0,2
"394",4,"white_butterfly",2,"green_flower","green_flower",1,0.918032786885246,0.498745,76,3,25,1,2,1,"wheelchair.jpg",0,3
"395",4,"grey_butterfly",5,"yellow_flower","yellow_flower",1,0.919354838709677,0.8935,77,3,26,1,2,1,"cactus.jpg",1,4
"396",4,"white_butterfly",3,"green_flower","green_flower",1,0.920634920634921,0.602995,78,3,27,1,2,1,"weddingcake.jpg",1,4
"397",4,"white_butterfly",4,"green_flower","green_flower",1,0.921875,0.527595,79,3,28,1,2,1,"rockingchair.jpg",1,3
"398",4,"grey_butterfly",2,"yellow_flower","yellow_flower",1,0.923076923076923,0.539525,80,3,29,1,2,1,"dartboard.jpg",1,4
"399",4,"white_butterfly",4,"green_flower","green_flower",1,0.924242424242424,1.002135,81,3,30,1,2,1,"handbrush02.jpg",1,4
"400",4,"grey_butterfly",4,"yellow_flower","yellow_flower",1,0.925373134328358,0.863755,82,3,31,1,2,1,"battleaxe.jpg",0,3
"401",4,"grey_butterfly",2,"yellow_flower","yellow_flower",1,0.926470588235294,0.49136,83,3,32,1,2,1,"cuttlefish.jpg",1,4
"403",4,"white_butterfly",2,"green_flower","green_flower",1,0.928571428571429,0.64354,85,3,34,1,2,1,"xylophone.jpg",0,1
"404",4,"grey_butterfly",5,"yellow_flower","yellow_flower",1,0.929577464788732,0.470625,86,3,35,1,2,1,"coffeemaker.jpg",0,2
"405",4,"grey_butterfly",4,"yellow_flower","yellow_flower",1,0.930555555555556,0.396285,87,3,36,1,2,1,"bleachers.jpg",1,2
"406",4,"white_butterfly",2,"green_flower","yellow_flower",0,0.917808219178082,0.43819,88,4,1,0,0,1,"windturbine.jpg",1,2
"407",4,"grey_butterfly",5,"yellow_flower","blue_flower",0,0.905405405405405,0.459725,89,4,2,0,0,1,"seaturtle.jpg",1,2
"408",4,"grey_butterfly",2,"yellow_flower","blue_flower",0,0.893333333333333,1.012355,90,4,3,0,0,1,"cannon.jpg",0,3
"409",4,"white_butterfly",4,"green_flower","yellow_flower",0,0.881578947368421,1.37376,91,4,4,0,0,1,"stool01.jpg",1,3
"410",4,"white_butterfly",5,"green_flower","yellow_flower",0,0.87012987012987,1.590445,92,4,5,0,0,1,"cruiseship.jpg",0,2
"411",4,"white_butterfly",2,"yellow_flower","yellow_flower",1,0.871794871794872,1.13069,93,4,6,0,0,1,"escalator.jpg",0,2
"412",4,"white_butterfly",4,"yellow_flower","yellow_flower",1,0.873417721518987,0.452575,94,4,7,0,0,1,"fluorescentlightbulb.jpg",0,2
"413",4,"grey_butterfly",3,"blue_flower","blue_flower",1,0.875,0.388305,95,4,8,0,0,1,"basketball01.jpg",0,1
"414",4,"grey_butterfly",2,"blue_flower","blue_flower",1,0.876543209876543,0.61383,96,4,9,0,0,1,"canoepaddle02.jpg",1,3
"415",4,"white_butterfly",4,"blue_flower","yellow_flower",0,0.865853658536585,0.313095,97,4,10,0,0,1,"stepladder.jpg",1,1
"416",4,"grey_butterfly",3,"blue_flower","blue_flower",1,0.867469879518072,1.134345,98,4,11,0,0,1,"donut.jpg",0,4
"417",4,"white_butterfly",4,"yellow_flower","yellow_flower",1,0.869047619047619,0.408755,99,4,12,0,0,1,"tulip02.jpg",0,1
"418",4,"grey_butterfly",3,"blue_flower","blue_flower",1,0.870588235294118,0.744475,100,4,13,0,1,1,"pirateflag.jpg",1,4
"419",4,"grey_butterfly",5,"blue_flower","blue_flower",1,0.872093023255814,0.969345,101,4,14,0,1,1,"waterfountain02.jpg",1,2
"420",4,"grey_butterfly",3,"yellow_flower","blue_flower",0,0.862068965517241,1.255805,102,4,15,0,1,1,"tent.jpg",0,1
"421",4,"white_butterfly",4,"yellow_flower","yellow_flower",1,0.863636363636364,0.84966,103,4,16,0,1,1,"barn.jpg",0,2
"422",4,"grey_butterfly",4,"blue_flower","blue_flower",1,0.865168539325843,0.444895,104,4,17,0,1,1,"seagull.jpg",1,4
"423",4,"grey_butterfly",5,"blue_flower","blue_flower",1,0.866666666666667,1.302575,105,4,18,0,1,1,"bathtub.jpg",0,2
"424",4,"white_butterfly",4,"yellow_flower","yellow_flower",1,0.868131868131868,0.739875,106,4,19,1,1,1,"brownsugar.jpg",1,4
"425",4,"grey_butterfly",3,"blue_flower","blue_flower",1,0.869565217391304,1.82623,107,4,20,1,1,1,"pumpkin.jpg",1,4
"426",4,"grey_butterfly",4,"blue_flower","blue_flower",1,0.870967741935484,0.60732,108,4,21,1,1,1,"trophy01.jpg",0,2
"427",4,"grey_butterfly",3,"red_flower","blue_flower",0,0.861702127659574,0.350095,109,4,22,1,1,1,"horse.jpg",1,4
"428",4,"white_butterfly",5,"yellow_flower","yellow_flower",1,0.863157894736842,0.657405,110,4,23,1,1,1,"jackrabbit.jpg",1,4
"429",4,"white_butterfly",5,"yellow_flower","yellow_flower",1,0.864583333333333,0.386155,111,4,24,1,1,1,"jaguar.jpg",1,4
"430",4,"white_butterfly",3,"yellow_flower","yellow_flower",1,0.865979381443299,0.41273,112,4,25,1,2,1,"trafficlight.jpg",1,3
"431",4,"white_butterfly",4,"yellow_flower","yellow_flower",1,0.86734693877551,0.434905,113,4,26,1,2,1,"communitymailbox.jpg",0,2
"432",4,"white_butterfly",2,"yellow_flower","yellow_flower",1,0.868686868686869,0.4704,114,4,27,1,2,1,"dromedary.jpg",1,3
"433",4,"white_butterfly",3,"yellow_flower","yellow_flower",1,0.87,0.68588,115,4,28,1,2,1,"duck01.jpg",0,3
"434",4,"grey_butterfly",5,"blue_flower","blue_flower",1,0.871287128712871,1.337885,116,4,29,1,2,1,"soccerball.jpg",1,2
"436",4,"white_butterfly",3,"yellow_flower","yellow_flower",1,0.87378640776699,0.719065,118,4,31,1,2,1,"football.jpg",0,2
"437",4,"grey_butterfly",4,"blue_flower","blue_flower",1,0.875,0.414115,119,4,32,1,2,1,"polarbear.jpg",1,4
"438",4,"white_butterfly",4,"yellow_flower","yellow_flower",1,0.876190476190476,1.642755,120,4,33,1,2,1,"monarchbutterfly.jpg",1,3
"439",4,"grey_butterfly",4,"blue_flower","blue_flower",1,0.877358490566038,0.484795,121,4,34,1,2,1,"cymbal.jpg",0,2
"440",4,"grey_butterfly",5,"yellow_flower","blue_flower",0,0.869158878504673,0.95421,122,4,35,1,2,1,"footballhelmet.jpg",0,2
"441",4,"grey_butterfly",2,"blue_flower","blue_flower",1,0.87037037037037,0.684395,123,4,36,1,2,1,"panda.jpg",1,4
"442",4,"white_butterfly",3,"yellow_flower","red_flower",0,0.862385321100917,1.03345,124,5,1,0,0,1,"beerbottle.jpg",0,2
"443",4,"white_butterfly",5,"yellow_flower","red_flower",0,0.854545454545454,0.90781,125,5,2,0,0,1,"eyepatch.jpg",1,3
"444",4,"white_butterfly",5,"blue_flower","red_flower",0,0.846846846846847,1.08668,126,5,3,0,0,1,"jellyfish.jpg",1,4
"445",4,"white_butterfly",4,"red_flower","red_flower",1,0.848214285714286,0.38864,127,5,4,0,0,1,"aquarium.jpg",0,1
"446",4,"white_butterfly",2,"red_flower","red_flower",1,0.849557522123894,0.550155,128,5,5,0,0,1,"greywolf.jpg",1,2
"447",4,"white_butterfly",4,"red_flower","red_flower",1,0.850877192982456,0.40196,129,5,6,0,0,1,"fingerprint.jpg",1,4
"448",4,"white_butterfly",2,"red_flower","red_flower",1,0.852173913043478,0.48837,130,5,7,0,0,1,"dreamcatcher.jpg",0,2
"449",4,"grey_butterfly",4,"red_flower","green_flower",0,0.844827586206897,0.44956,131,5,8,0,0,1,"christmaslights.jpg",1,2
"450",4,"grey_butterfly",5,"red_flower","green_flower",0,0.837606837606838,0.519305,132,5,9,0,0,1,"porcupine.jpg",0,3
"451",4,"grey_butterfly",5,"green_flower","green_flower",1,0.838983050847458,0.433585,133,5,10,0,0,1,"volleyball.jpg",1,2
"452",4,"grey_butterfly",2,"green_flower","green_flower",1,0.840336134453782,0.553145,134,5,11,0,0,1,"cookingpot.jpg",1,4
"453",4,"white_butterfly",2,"red_flower","red_flower",1,0.841666666666667,0.623535,135,5,12,0,0,1,"ironingboard01.jpg",1,2
"454",4,"grey_butterfly",4,"green_flower","green_flower",1,0.84297520661157,0.52065,136,5,13,0,1,1,"filingcabinet.jpg",1,2
"456",4,"grey_butterfly",5,"green_flower","green_flower",1,0.845528455284553,0.40465,138,5,15,0,1,1,"granolabar01.jpg",1,4
"457",4,"white_butterfly",5,"red_flower","red_flower",1,0.846774193548387,1.611705,139,5,16,0,1,1,"redonion.jpg",1,4
"458",4,"grey_butterfly",1,NA,"green_flower",0,0.84,NA,140,5,17,0,1,1,"cloud.jpg",1,2
"459",4,"white_butterfly",5,"red_flower","red_flower",1,0.841269841269841,0.571145,141,5,18,0,1,1,"chime.jpg",1,2
"460",4,"grey_butterfly",5,"green_flower","green_flower",1,0.84251968503937,0.50598,142,5,19,1,1,1,"fishingrod.jpg",1,3
"461",4,"white_butterfly",4,"red_flower","red_flower",1,0.84375,0.762595,143,5,20,1,1,1,"fishskeleton.jpg",1,4
"462",4,"grey_butterfly",2,"green_flower","green_flower",1,0.844961240310077,0.98476,144,5,21,1,1,1,"urinal.jpg",1,4
"463",4,"white_butterfly",5,"red_flower","red_flower",1,0.846153846153846,1.24231,145,5,22,1,1,1,"key07.jpg",1,3
"464",4,"grey_butterfly",5,"green_flower","green_flower",1,0.847328244274809,0.77972,146,5,23,1,1,1,"toyanimal05.jpg",0,3
"465",4,"grey_butterfly",2,"green_flower","green_flower",1,0.848484848484849,1.01705,147,5,24,1,1,1,"candycane01a.jpg",1,3
"466",4,"grey_butterfly",2,"green_flower","green_flower",1,0.849624060150376,0.438485,148,5,25,1,2,1,"vacuumcleaner01.jpg",0,2
"467",4,"grey_butterfly",3,"green_flower","green_flower",1,0.850746268656716,0.478165,149,5,26,1,2,1,"hotdog.jpg",0,3
"468",4,"white_butterfly",3,"red_flower","red_flower",1,0.851851851851852,0.737525,150,5,27,1,2,1,"lantern03.jpg",1,4
"469",4,"grey_butterfly",5,"green_flower","green_flower",1,0.852941176470588,0.532565,151,5,28,1,2,1,"blender.jpg",0,2
"470",4,"white_butterfly",5,"red_flower","red_flower",1,0.854014598540146,0.41676,152,5,29,1,2,1,"jellybean.jpg",1,4
"471",4,"grey_butterfly",4,"green_flower","green_flower",1,0.855072463768116,0.55722,153,5,30,1,2,1,"musicstand.jpg",0,2
"472",4,"white_butterfly",3,"red_flower","red_flower",1,0.856115107913669,0.318425,154,5,31,1,2,1,"skihelmet01.jpg",1,4
"474",4,"grey_butterfly",2,"green_flower","green_flower",1,0.858156028368794,0.43163,156,5,33,1,2,1,"frisbee.jpg",1,2
"475",4,"white_butterfly",3,"red_flower","red_flower",1,0.859154929577465,0.344835,157,5,34,1,2,1,"shovel01.jpg",1,2
"476",4,"white_butterfly",4,"red_flower","red_flower",1,0.86013986013986,1.22243,158,5,35,1,2,1,"callbell.jpg",1,2
"477",4,"grey_butterfly",3,"green_flower","green_flower",1,0.861111111111111,1.38232,159,5,36,1,2,1,"shelves.jpg",0,1
"493",5,"white_butterfly",3,"blue_flower","blue_flower",1,1,2.03,16,2,1,0,0,1,"vacuumcleaner01.jpg",0,3
"494",5,"white_butterfly",4,"green_flower","blue_flower",0,0.5,1.68,17,2,2,0,0,1,"eyepatch.jpg",0,3
"495",5,"grey_butterfly",1,NA,"red_flower",0,0.333333333333333,NA,18,2,3,0,0,1,"dolphin01.jpg",1,3
"496",5,"white_butterfly",5,"yellow_flower","blue_flower",0,0.25,0.878,19,2,4,0,0,1,"monarchbutterfly.jpg",1,4
"497",5,"white_butterfly",4,"red_flower","blue_flower",0,0.2,1.418,20,2,5,0,0,1,"gps.jpg",0,3
"498",5,"white_butterfly",4,"blue_flower","blue_flower",1,0.333333333333333,2.089,21,2,6,0,0,1,"trombone.jpg",0,3
"499",5,"grey_butterfly",5,"red_flower","red_flower",1,0.428571428571429,1.051,22,2,7,0,0,1,"skihelmet01.jpg",0,3
"500",5,"grey_butterfly",2,"yellow_flower","red_flower",0,0.375,1.175,23,2,8,0,0,1,"winniethepooh.jpg",1,4
"501",5,"white_butterfly",5,"blue_flower","blue_flower",1,0.444444444444444,1.203,24,2,9,0,0,1,"hulahoop.jpg",0,4
"502",5,"white_butterfly",4,"yellow_flower","blue_flower",0,0.4,1.656,25,2,10,0,0,1,"snowman.jpg",0,3
"503",5,"grey_butterfly",5,"yellow_flower","red_flower",0,0.363636363636364,1.405,26,2,11,0,0,1,"tricycle.jpg",0,2
"504",5,"grey_butterfly",2,"blue_flower","red_flower",0,0.333333333333333,1.866,27,2,12,0,0,1,"whiteout.jpg",1,4
"505",5,"white_butterfly",3,"blue_flower","blue_flower",1,0.384615384615385,1.266,28,2,13,0,1,1,"key07.jpg",1,4
"506",5,"white_butterfly",3,"yellow_flower","blue_flower",0,0.357142857142857,2.235,29,2,14,0,1,1,"file.jpg",0,3
"508",5,"grey_butterfly",3,"red_flower","red_flower",1,0.4375,0.821,31,2,16,0,1,1,"lionstatue.jpg",0,3
"509",5,"grey_butterfly",2,"red_flower","red_flower",1,0.470588235294118,2.175,32,2,17,0,1,1,"bleachers.jpg",1,3
"510",5,"grey_butterfly",5,"red_flower","red_flower",1,0.5,1.276,33,2,18,0,1,1,"ipad02.jpg",0,2
"511",5,"grey_butterfly",2,"blue_flower","red_flower",0,0.473684210526316,0.961,34,2,19,1,1,1,"beerbottle.jpg",0,2
"512",5,"grey_butterfly",3,"red_flower","red_flower",1,0.5,0.67,35,2,20,1,1,1,"pumpkin.jpg",1,3
"513",5,"grey_butterfly",4,"red_flower","red_flower",1,0.523809523809524,1.313,36,2,21,1,1,1,"rollerblade.jpg",0,3
"514",5,"grey_butterfly",3,"red_flower","red_flower",1,0.545454545454545,0.778,37,2,22,1,1,1,"bowlingpin.jpg",0,2
"515",5,"white_butterfly",3,"blue_flower","blue_flower",1,0.565217391304348,0.678,38,2,23,1,1,1,"blender.jpg",0,3
"516",5,"grey_butterfly",5,"red_flower","red_flower",1,0.583333333333333,0.87,39,2,24,1,1,1,"christmaslights.jpg",0,4
"517",5,"white_butterfly",4,"blue_flower","blue_flower",1,0.6,0.683,40,2,25,1,2,1,"granolabar01.jpg",1,3
"518",5,"grey_butterfly",5,"red_flower","red_flower",1,0.615384615384615,0.691,41,2,26,1,2,1,"shower.jpg",0,2
"519",5,"white_butterfly",3,"blue_flower","blue_flower",1,0.62962962962963,1.136,42,2,27,1,2,1,"sandcastle.jpg",1,4
"520",5,"grey_butterfly",3,"red_flower","red_flower",1,0.642857142857143,1.208,43,2,28,1,2,1,"cookingpot.jpg",1,3
"521",5,"white_butterfly",4,"blue_flower","blue_flower",1,0.655172413793103,0.949,44,2,29,1,2,1,"baseballglove.jpg",0,3
"522",5,"grey_butterfly",4,"red_flower","red_flower",1,0.666666666666667,0.832,45,2,30,1,2,1,"candycane01a.jpg",1,4
"523",5,"white_butterfly",3,"blue_flower","blue_flower",1,0.67741935483871,0.657,46,2,31,1,2,1,"windturbine.jpg",1,2
"524",5,"white_butterfly",2,"blue_flower","blue_flower",1,0.6875,0.955,47,2,32,1,2,1,"desktopcomputer.jpg",0,3
"526",5,"grey_butterfly",5,"red_flower","red_flower",1,0.705882352941177,1.286,49,2,34,1,2,1,"scalpel.jpg",1,2
"527",5,"grey_butterfly",4,"red_flower","red_flower",1,0.714285714285714,0.625,50,2,35,1,2,1,"footballhelmet.jpg",1,3
"528",5,"white_butterfly",5,"blue_flower","blue_flower",1,0.722222222222222,0.767,51,2,36,1,2,1,"seaturtle.jpg",0,2
"529",5,"white_butterfly",5,"blue_flower","green_flower",0,0.702702702702703,0.621,52,3,1,0,0,1,"callbell.jpg",1,4
"530",5,"white_butterfly",5,"blue_flower","green_flower",0,0.684210526315789,1.526,53,3,2,0,0,1,"polarbear.jpg",1,4
"531",5,"grey_butterfly",4,"red_flower","yellow_flower",0,0.666666666666667,0.794,54,3,3,0,0,1,"shovel01.jpg",1,3
"532",5,"white_butterfly",4,"green_flower","green_flower",1,0.675,1.951,55,3,4,0,0,1,"greywolf.jpg",1,3
"533",5,"grey_butterfly",4,"green_flower","yellow_flower",0,0.658536585365854,1.274,56,3,5,0,0,1,"giraffe.jpg",1,3
"534",5,"white_butterfly",1,NA,"green_flower",0,0.642857142857143,NA,57,3,6,0,0,1,"ironingboard01.jpg",0,3
"535",5,"white_butterfly",5,"green_flower","green_flower",1,0.651162790697674,0.669,58,3,7,0,0,1,"barn.jpg",1,3
"536",5,"grey_butterfly",4,"yellow_flower","yellow_flower",1,0.659090909090909,0.978,59,3,8,0,0,1,"showerhead01.jpg",0,3
"537",5,"white_butterfly",3,"green_flower","green_flower",1,0.666666666666667,1.73,60,3,9,0,0,1,"dreamcatcher.jpg",0,3
"538",5,"grey_butterfly",2,"yellow_flower","yellow_flower",1,0.673913043478261,1.095,61,3,10,0,0,1,"golfball.jpg",0,2
"539",5,"white_butterfly",2,"green_flower","green_flower",1,0.680851063829787,1.127,62,3,11,0,0,1,"wheelchair.jpg",1,2
"540",5,"grey_butterfly",3,"yellow_flower","yellow_flower",1,0.6875,0.692,63,3,12,0,0,1,"waterfountain02.jpg",0,3
"541",5,"grey_butterfly",3,"yellow_flower","yellow_flower",1,0.693877551020408,1.022,64,3,13,0,1,1,"fluorescentlightbulb.jpg",0,3
"542",5,"grey_butterfly",2,"green_flower","yellow_flower",0,0.68,0.895,65,3,14,0,1,1,"frisbee.jpg",0,3
"543",5,"white_butterfly",5,"yellow_flower","green_flower",0,0.666666666666667,1.11,66,3,15,0,1,1,"trophy01.jpg",0,3
"545",5,"white_butterfly",3,"green_flower","green_flower",1,0.679245283018868,0.77,68,3,17,0,1,1,"mirror02.jpg",1,2
"546",5,"grey_butterfly",2,"green_flower","yellow_flower",0,0.666666666666667,1.852,69,3,18,0,1,1,"jeans01.jpg",0,3
"547",5,"white_butterfly",5,"green_flower","green_flower",1,0.672727272727273,1.305,70,3,19,1,1,1,"cashregister01.jpg",0,3
"548",5,"white_butterfly",3,"yellow_flower","green_flower",0,0.660714285714286,1.226,71,3,20,1,1,1,"salmon.jpg",1,4
"549",5,"grey_butterfly",2,"yellow_flower","yellow_flower",1,0.666666666666667,1.824,72,3,21,1,1,1,"jackrabbit.jpg",0,2
"550",5,"grey_butterfly",2,"yellow_flower","yellow_flower",1,0.672413793103448,0.473,73,3,22,1,1,1,"sausage.jpg",0,4
"551",5,"grey_butterfly",3,"green_flower","yellow_flower",0,0.661016949152542,2.205,74,3,23,1,1,1,"bolt01a.jpg",0,3
"552",5,"white_butterfly",5,"yellow_flower","green_flower",0,0.65,0.662,75,3,24,1,1,1,"chipmunk.jpg",1,3
"553",5,"white_butterfly",2,"green_flower","green_flower",1,0.655737704918033,1.546,76,3,25,1,2,1,"spicerack.jpg",0,3
"554",5,"grey_butterfly",4,"green_flower","yellow_flower",0,0.645161290322581,1.076,77,3,26,1,2,1,"beaver.jpg",0,3
"555",5,"white_butterfly",3,"green_flower","green_flower",1,0.650793650793651,1.084,78,3,27,1,2,1,"cuttlefish.jpg",0,3
"556",5,"white_butterfly",4,"green_flower","green_flower",1,0.65625,0.744,79,3,28,1,2,1,"communitymailbox.jpg",0,3
"557",5,"grey_butterfly",2,"yellow_flower","yellow_flower",1,0.661538461538462,0.946,80,3,29,1,2,1,"treestump.jpg",0,2
"559",5,"grey_butterfly",4,"yellow_flower","yellow_flower",1,0.671641791044776,1.018,82,3,31,1,2,1,"basketball01.jpg",0,4
"560",5,"grey_butterfly",2,"yellow_flower","yellow_flower",1,0.676470588235294,0.902,83,3,32,1,2,1,"electricguitar01.jpg",1,3
"561",5,"grey_butterfly",4,"yellow_flower","yellow_flower",1,0.681159420289855,0.628,84,3,33,1,2,1,"snowglobe.jpg",1,4
"562",5,"white_butterfly",2,"green_flower","green_flower",1,0.685714285714286,1.34,85,3,34,1,2,1,"bacon.jpg",0,2
"563",5,"grey_butterfly",3,"green_flower","yellow_flower",0,0.676056338028169,1.238,86,3,35,1,2,1,"exitsign.jpg",0,4
"564",5,"grey_butterfly",4,"yellow_flower","yellow_flower",1,0.680555555555556,1.552,87,3,36,1,2,1,"windshieldwiper02.jpg",0,2
"565",5,"white_butterfly",2,"green_flower","yellow_flower",0,0.671232876712329,1.631,88,4,1,0,0,1,"shelves.jpg",0,3
"566",5,"grey_butterfly",2,"green_flower","blue_flower",0,0.662162162162162,1.652,89,4,2,0,0,1,"contactlens.jpg",0,3
"567",5,"grey_butterfly",5,"red_flower","blue_flower",0,0.653333333333333,2.365,90,4,3,0,0,1,"witchhat.jpg",0,3
"568",5,"white_butterfly",2,"yellow_flower","yellow_flower",1,0.657894736842105,1.885,91,4,4,0,0,1,"panda.jpg",0,3
"569",5,"white_butterfly",3,"blue_flower","yellow_flower",0,0.649350649350649,0.904,92,4,5,0,0,1,"filingcabinet.jpg",1,4
"570",5,"white_butterfly",4,"green_flower","yellow_flower",0,0.641025641025641,1.831,93,4,6,0,0,1,"artichoke01b.jpg",0,3
"571",5,"white_butterfly",2,"blue_flower","yellow_flower",0,0.632911392405063,2.102,94,4,7,0,0,1,"escalator.jpg",0,2
"572",5,"grey_butterfly",4,"red_flower","blue_flower",0,0.625,2.139,95,4,8,0,0,1,"hockeypuck.jpg",0,3
"573",5,"grey_butterfly",2,"blue_flower","blue_flower",1,0.62962962962963,0.843,96,4,9,0,0,1,"coffeemaker.jpg",0,4
"574",5,"white_butterfly",5,"yellow_flower","yellow_flower",1,0.634146341463415,1.175,97,4,10,0,0,1,"battleaxe.jpg",0,3
"575",5,"grey_butterfly",2,"yellow_flower","blue_flower",0,0.626506024096386,0.852,98,4,11,0,0,1,"snowshovel.jpg",1,4
"576",5,"white_butterfly",2,"blue_flower","yellow_flower",0,0.619047619047619,1.04,99,4,12,0,0,1,"zebra.jpg",1,3
"577",5,"grey_butterfly",3,"blue_flower","blue_flower",1,0.623529411764706,0.93,100,4,13,0,1,1,"star.jpg",0,3
"578",5,"grey_butterfly",5,"blue_flower","blue_flower",1,0.627906976744186,0.889,101,4,14,0,1,1,"canoepaddle02.jpg",0,3
"580",5,"white_butterfly",5,"red_flower","yellow_flower",0,0.625,0.888,103,4,16,0,1,1,"fishskeleton.jpg",0,3
"581",5,"grey_butterfly",2,"green_flower","blue_flower",0,0.617977528089888,0.509,104,4,17,0,1,1,"cork02.jpg",1,3
"582",5,"grey_butterfly",5,"blue_flower","blue_flower",1,0.622222222222222,0.729,105,4,18,0,1,1,"xylophone.jpg",1,4
"583",5,"white_butterfly",2,"blue_flower","yellow_flower",0,0.615384615384615,1.984,106,4,19,1,1,1,"apron.jpg",1,3
"584",5,"grey_butterfly",3,"blue_flower","blue_flower",1,0.619565217391304,0.915,107,4,20,1,1,1,"brownsugar.jpg",1,2
"585",5,"grey_butterfly",4,"blue_flower","blue_flower",1,0.623655913978495,0.686,108,4,21,1,1,1,"table01.jpg",0,3
"586",5,"grey_butterfly",2,"blue_flower","blue_flower",1,0.627659574468085,0.492,109,4,22,1,1,1,"toyanimal05.jpg",0,2
"587",5,"white_butterfly",5,"yellow_flower","yellow_flower",1,0.631578947368421,0.711,110,4,23,1,1,1,"jellybean.jpg",1,4
"588",5,"white_butterfly",5,"yellow_flower","yellow_flower",1,0.635416666666667,0.486,111,4,24,1,1,1,"jokercard.jpg",1,4
"589",5,"white_butterfly",3,"yellow_flower","yellow_flower",1,0.639175257731959,0.782,112,4,25,1,2,1,"seagull.jpg",1,2
"590",5,"white_butterfly",3,"blue_flower","yellow_flower",0,0.63265306122449,2.015,113,4,26,1,2,1,"surfboard.jpg",0,3
"591",5,"white_butterfly",5,"green_flower","yellow_flower",0,0.626262626262626,0.735,114,4,27,1,2,1,"sailboat.jpg",1,3
"592",5,"white_butterfly",3,"yellow_flower","yellow_flower",1,0.63,0.827,115,4,28,1,2,1,"duck01.jpg",0,3
"594",5,"white_butterfly",3,"yellow_flower","yellow_flower",1,0.637254901960784,0.819,117,4,30,1,2,1,"volleyball.jpg",0,3
"595",5,"white_butterfly",3,"yellow_flower","yellow_flower",1,0.640776699029126,0.702,118,4,31,1,2,1,"hotdog.jpg",1,4
"596",5,"grey_butterfly",4,"blue_flower","blue_flower",1,0.644230769230769,0.911,119,4,32,1,2,1,"cruiseship.jpg",0,2
"597",5,"white_butterfly",4,"yellow_flower","yellow_flower",1,0.647619047619048,0.693,120,4,33,1,2,1,"barrel01.jpg",0,3
"598",5,"grey_butterfly",4,"blue_flower","blue_flower",1,0.650943396226415,0.659,121,4,34,1,2,1,"doubledoors.jpg",0,3
"599",5,"grey_butterfly",3,"blue_flower","blue_flower",1,0.654205607476635,1.33,122,4,35,1,2,1,"stepladder.jpg",1,3
"600",5,"grey_butterfly",2,"blue_flower","blue_flower",1,0.657407407407407,0.776,123,4,36,1,2,1,"hockeystick.jpg",1,3
"601",5,"white_butterfly",2,"blue_flower","red_flower",0,0.651376146788991,1.482,124,5,1,0,0,1,"rockingchair.jpg",1,3
"602",5,"white_butterfly",2,"red_flower","red_flower",1,0.654545454545455,0.544,125,5,2,0,0,1,"crown.jpg",0,3
"603",5,"white_butterfly",2,"red_flower","red_flower",1,0.657657657657658,0.636,126,5,3,0,0,1,"tulip02.jpg",1,4
"604",5,"white_butterfly",4,"red_flower","red_flower",1,0.660714285714286,0.98,127,5,4,0,0,1,"pirateflag.jpg",1,4
"605",5,"white_butterfly",5,"blue_flower","red_flower",0,0.654867256637168,0.752,128,5,5,0,0,1,"urinal.jpg",0,4
"606",5,"white_butterfly",4,"red_flower","red_flower",1,0.657894736842105,0.529,129,5,6,0,0,1,"redonion.jpg",1,4
"607",5,"white_butterfly",3,"blue_flower","red_flower",0,0.652173913043478,1.401,130,5,7,0,0,1,"handbrush02.jpg",1,3
"608",5,"grey_butterfly",2,"blue_flower","green_flower",0,0.646551724137931,0.594,131,5,8,0,0,1,"horse.jpg",1,3
"609",5,"grey_butterfly",3,"green_flower","green_flower",1,0.64957264957265,0.517,132,5,9,0,0,1,"asianelephant.jpg",0,2
"610",5,"grey_butterfly",5,"green_flower","green_flower",1,0.652542372881356,0.631,133,5,10,0,0,1,"dartboard.jpg",0,2
"611",5,"grey_butterfly",2,"green_flower","green_flower",1,0.65546218487395,0.606,134,5,11,0,0,1,"cactus.jpg",0,3
"612",5,"white_butterfly",2,"red_flower","red_flower",1,0.658333333333333,0.829,135,5,12,0,0,1,"birdfeeder.jpg",0,3
"614",5,"grey_butterfly",5,"red_flower","green_flower",0,0.647540983606557,1.204,137,5,14,0,1,1,"skiboot01a.jpg",1,3
"615",5,"grey_butterfly",2,"red_flower","green_flower",0,0.642276422764228,1.721,138,5,15,0,1,1,"fishingrod.jpg",1,4
"616",5,"white_butterfly",4,"blue_flower","red_flower",0,0.637096774193548,1.31,139,5,16,0,1,1,"fridge.jpg",0,2
"617",5,"grey_butterfly",4,"green_flower","green_flower",1,0.64,1.832,140,5,17,0,1,1,"gong.jpg",0,3
"618",5,"white_butterfly",5,"red_flower","red_flower",1,0.642857142857143,1.497,141,5,18,0,1,1,"cloud.jpg",1,3
"619",5,"grey_butterfly",3,"red_flower","green_flower",0,0.637795275590551,2.168,142,5,19,1,1,1,"acorn.jpg",0,3
"620",5,"white_butterfly",4,"red_flower","red_flower",1,0.640625,0.708,143,5,20,1,1,1,"tent.jpg",1,3
"621",5,"grey_butterfly",2,"green_flower","green_flower",1,0.643410852713178,0.923,144,5,21,1,1,1,"lintroller.jpg",0,3
"622",5,"white_butterfly",5,"red_flower","red_flower",1,0.646153846153846,2.146,145,5,22,1,1,1,"dalmatian.jpg",0,4
"623",5,"grey_butterfly",4,"blue_flower","green_flower",0,0.641221374045801,0.701,146,5,23,1,1,1,"chime.jpg",0,3
"624",5,"grey_butterfly",5,"red_flower","green_flower",0,0.636363636363636,0.793,147,5,24,1,1,1,"donut.jpg",1,4
"625",5,"grey_butterfly",2,"green_flower","green_flower",1,0.639097744360902,0.453,148,5,25,1,2,1,"locomotive.jpg",0,3
"626",5,"grey_butterfly",3,"green_flower","green_flower",1,0.641791044776119,0.735,149,5,26,1,2,1,"triangle.jpg",1,3
"627",5,"white_butterfly",3,"red_flower","red_flower",1,0.644444444444444,1.358,150,5,27,1,2,1,"jaguar.jpg",1,4
"628",5,"grey_butterfly",4,"red_flower","green_flower",0,0.639705882352941,2.353,151,5,28,1,2,1,"dromedary.jpg",1,3
"629",5,"white_butterfly",3,"green_flower","red_flower",0,0.635036496350365,1.584,152,5,29,1,2,1,"lantern03.jpg",0,2
"630",5,"grey_butterfly",3,"red_flower","green_flower",0,0.630434782608696,0.72,153,5,30,1,2,1,"stool01.jpg",0,2
"631",5,"white_butterfly",3,"red_flower","red_flower",1,0.633093525179856,0.742,154,5,31,1,2,1,"porcupine.jpg",0,2
"632",5,"white_butterfly",5,"red_flower","red_flower",1,0.635714285714286,0.612,155,5,32,1,2,1,"jellyfish.jpg",1,4
"633",5,"grey_butterfly",2,"green_flower","green_flower",1,0.638297872340426,2.015,156,5,33,1,2,1,"weddingcake.jpg",0,3
"635",5,"white_butterfly",4,"red_flower","red_flower",1,0.643356643356643,1.549,158,5,35,1,2,1,"recyclingbin.jpg",0,3
"636",5,"grey_butterfly",3,"green_flower","green_flower",1,0.645833333333333,0.854,159,5,36,1,2,1,"bookshelf.jpg",1,3
"652",6,"white_butterfly",3,"blue_flower","blue_flower",1,1,0.585205,16,2,1,0,0,1,"handbrush02.jpg",0,2
"653",6,"white_butterfly",2,"yellow_flower","blue_flower",0,0.5,1.16587,17,2,2,0,0,1,"treadmill.jpg",0,2
"654",6,"grey_butterfly",2,"red_flower","red_flower",1,0.666666666666667,0.68078,18,2,3,0,0,1,"shower.jpg",0,1
"655",6,"white_butterfly",4,"blue_flower","blue_flower",1,0.75,0.715225,19,2,4,0,0,1,"skateboard.jpg",1,1
"656",6,"white_butterfly",3,"blue_flower","blue_flower",1,0.8,0.68084,20,2,5,0,0,1,"barrel01.jpg",0,2
"657",6,"white_butterfly",4,"blue_flower","blue_flower",1,0.833333333333333,0.55274,21,2,6,0,0,1,"xylophone.jpg",0,2
"658",6,"grey_butterfly",5,"red_flower","red_flower",1,0.857142857142857,1.583185,22,2,7,0,0,1,"forklift.jpg",1,1
"659",6,"grey_butterfly",4,"red_flower","red_flower",1,0.875,0.612965,23,2,8,0,0,1,"scalpel.jpg",1,1
"660",6,"white_butterfly",5,"blue_flower","blue_flower",1,0.888888888888889,0.38022,24,2,9,0,0,1,"sailboat.jpg",1,1
"661",6,"white_butterfly",2,"blue_flower","blue_flower",1,0.9,1.200795,25,2,10,0,0,1,"snowman.jpg",1,3
"662",6,"grey_butterfly",2,"red_flower","red_flower",1,0.909090909090909,0.75887,26,2,11,0,0,1,"stool01.jpg",0,2
"664",6,"white_butterfly",3,"blue_flower","blue_flower",1,0.923076923076923,0.83696,28,2,13,0,1,1,"desktopcomputer.jpg",0,2
"665",6,"white_butterfly",4,"blue_flower","blue_flower",1,0.928571428571429,0.5124,29,2,14,0,1,1,"triangle.jpg",0,2
"666",6,"white_butterfly",4,"green_flower","blue_flower",0,0.866666666666667,0.65883,30,2,15,0,1,1,"dartboard.jpg",0,4
"667",6,"grey_butterfly",5,"blue_flower","red_flower",0,0.8125,1.74411,31,2,16,0,1,1,"electricguitar01.jpg",0,2
"668",6,"grey_butterfly",2,"red_flower","red_flower",1,0.823529411764706,1.977275,32,2,17,0,1,1,"doubledoors.jpg",0,3
"669",6,"grey_butterfly",5,"red_flower","red_flower",1,0.833333333333333,0.689565,33,2,18,0,1,1,"waterfountain02.jpg",0,2
"670",6,"grey_butterfly",2,"blue_flower","red_flower",0,0.789473684210526,0.77296,34,2,19,1,1,1,"skiboot01a.jpg",0,2
"671",6,"grey_butterfly",3,"red_flower","red_flower",1,0.8,0.62615,35,2,20,1,1,1,"rockingchair.jpg",0,1
"672",6,"grey_butterfly",5,"blue_flower","red_flower",0,0.761904761904762,1.21458,36,2,21,1,1,1,"trophy01.jpg",0,2
"673",6,"grey_butterfly",3,"red_flower","red_flower",1,0.772727272727273,0.567235,37,2,22,1,1,1,"fridge.jpg",0,1
"674",6,"white_butterfly",3,"blue_flower","blue_flower",1,0.782608695652174,0.74381,38,2,23,1,1,1,"filingcabinet.jpg",0,1
"675",6,"grey_butterfly",5,"red_flower","red_flower",1,0.791666666666667,0.488875,39,2,24,1,1,1,"crown.jpg",0,3
"676",6,"white_butterfly",4,"blue_flower","blue_flower",1,0.8,0.526155,40,2,25,1,2,1,"file.jpg",0,2
"677",6,"grey_butterfly",5,"red_flower","red_flower",1,0.807692307692308,0.341255,41,2,26,1,2,1,"blender.jpg",0,2
"678",6,"white_butterfly",3,"blue_flower","blue_flower",1,0.814814814814815,0.72576,42,2,27,1,2,1,"sandcastle.jpg",1,4
"679",6,"grey_butterfly",5,"blue_flower","red_flower",0,0.785714285714286,0.53792,43,2,28,1,2,1,"crab01.jpg",0,2
"681",6,"grey_butterfly",4,"red_flower","red_flower",1,0.8,0.539045,45,2,30,1,2,1,"doghouse.jpg",0,1
"682",6,"white_butterfly",3,"blue_flower","blue_flower",1,0.806451612903226,0.72027,46,2,31,1,2,1,"chime.jpg",0,2
"683",6,"white_butterfly",2,"blue_flower","blue_flower",1,0.8125,0.9666,47,2,32,1,2,1,"contactlens.jpg",1,4
"684",6,"white_butterfly",4,"blue_flower","blue_flower",1,0.818181818181818,0.756575,48,2,33,1,2,1,"snowglobe.jpg",0,2
"685",6,"grey_butterfly",5,"red_flower","red_flower",1,0.823529411764706,0.48525,49,2,34,1,2,1,"beerbottle.jpg",0,3
"686",6,"grey_butterfly",3,"blue_flower","red_flower",0,0.8,0.62511,50,2,35,1,2,1,"salmon.jpg",1,3
"687",6,"white_butterfly",5,"blue_flower","blue_flower",1,0.805555555555556,1.099245,51,2,36,1,2,1,"microwave.jpg",0,2
"688",6,"white_butterfly",5,"blue_flower","green_flower",0,0.783783783783784,0.43001,52,3,1,0,0,1,"whiteout.jpg",0,2
"689",6,"white_butterfly",5,"blue_flower","green_flower",0,0.763157894736842,0.654865,53,3,2,0,0,1,"dromedary.jpg",0,2
"690",6,"grey_butterfly",4,"red_flower","yellow_flower",0,0.743589743589744,0.52565,54,3,3,0,0,1,"cruiseship.jpg",1,1
"691",6,"white_butterfly",4,"green_flower","green_flower",1,0.75,0.50781,55,3,4,0,0,1,"rollerblade.jpg",0,1
"692",6,"grey_butterfly",3,"yellow_flower","yellow_flower",1,0.75609756097561,0.739235,56,3,5,0,0,1,"windshieldwiper02.jpg",1,1
"693",6,"white_butterfly",1,NA,"green_flower",0,0.738095238095238,NA,57,3,6,0,0,1,"candycane01a.jpg",0,2
"694",6,"white_butterfly",5,"green_flower","green_flower",1,0.744186046511628,0.708015,58,3,7,0,0,1,"canoepaddle02.jpg",1,3
"695",6,"grey_butterfly",4,"yellow_flower","yellow_flower",1,0.75,0.59187,59,3,8,0,0,1,"hotdog.jpg",0,2
"696",6,"white_butterfly",3,"green_flower","green_flower",1,0.755555555555556,0.59789,60,3,9,0,0,1,"cactus.jpg",0,1
"697",6,"grey_butterfly",2,"yellow_flower","yellow_flower",1,0.760869565217391,0.6288,61,3,10,0,0,1,"bookshelf.jpg",1,1
"698",6,"white_butterfly",2,"green_flower","green_flower",1,0.765957446808511,0.808495,62,3,11,0,0,1,"bathtub.jpg",0,3
"699",6,"grey_butterfly",3,"yellow_flower","yellow_flower",1,0.770833333333333,0.42078,63,3,12,0,0,1,"spicerack.jpg",0,2
"700",6,"grey_butterfly",3,"yellow_flower","yellow_flower",1,0.775510204081633,0.51175,64,3,13,0,1,1,"stepladder.jpg",0,2
"701",6,"grey_butterfly",4,"yellow_flower","yellow_flower",1,0.78,0.49272,65,3,14,0,1,1,"snowshovel.jpg",1,4
"702",6,"white_butterfly",3,"green_flower","green_flower",1,0.784313725490196,0.794625,66,3,15,0,1,1,"seaturtle.jpg",1,4
"703",6,"white_butterfly",3,"green_flower","green_flower",1,0.788461538461538,1.533125,67,3,16,0,1,1,"winniethepooh.jpg",0,1
"704",6,"white_butterfly",4,"blue_flower","green_flower",0,0.773584905660377,1.06418,68,3,17,0,1,1,"witchhat.jpg",0,3
"705",6,"grey_butterfly",5,"red_flower","yellow_flower",0,0.759259259259259,0.77762,69,3,18,0,1,1,"granolabar01.jpg",0,2
"706",6,"white_butterfly",3,"red_flower","green_flower",0,0.745454545454545,1.253215,70,3,19,1,1,1,"shovel01.jpg",0,2
"707",6,"white_butterfly",2,"green_flower","green_flower",1,0.75,1.66305,71,3,20,1,1,1,"fluorescentlightbulb.jpg",0,1
"708",6,"grey_butterfly",5,"red_flower","yellow_flower",0,0.736842105263158,0.97021,72,3,21,1,1,1,"urinal.jpg",0,2
"709",6,"grey_butterfly",2,"yellow_flower","yellow_flower",1,0.741379310344828,1.59897,73,3,22,1,1,1,"frisbee.jpg",0,1
"710",6,"grey_butterfly",2,"blue_flower","yellow_flower",0,0.728813559322034,1.3495,74,3,23,1,1,1,"porcupine.jpg",0,3
"711",6,"white_butterfly",4,"blue_flower","green_flower",0,0.716666666666667,0.71652,75,3,24,1,1,1,"showerhead01.jpg",0,2
"712",6,"white_butterfly",2,"green_flower","green_flower",1,0.721311475409836,1.466095,76,3,25,1,2,1,"handheldtelescope.jpg",0,2
"713",6,"grey_butterfly",4,"green_flower","yellow_flower",0,0.709677419354839,1.049775,77,3,26,1,2,1,"acorn.jpg",0,1
"714",6,"white_butterfly",3,"green_flower","green_flower",1,0.714285714285714,0.820925,78,3,27,1,2,1,"polarbear.jpg",1,4
"715",6,"white_butterfly",4,"green_flower","green_flower",1,0.71875,1.89377,79,3,28,1,2,1,"pirateflag.jpg",0,2
"716",6,"grey_butterfly",2,"yellow_flower","yellow_flower",1,0.723076923076923,1.66168,80,3,29,1,2,1,"seagull.jpg",0,1
"717",6,"white_butterfly",4,"green_flower","green_flower",1,0.727272727272727,0.871535,81,3,30,1,2,1,"toyanimal05.jpg",1,1
"718",6,"grey_butterfly",4,"yellow_flower","yellow_flower",1,0.73134328358209,0.818195,82,3,31,1,2,1,"greywolf.jpg",0,2
"720",6,"grey_butterfly",3,"green_flower","yellow_flower",0,0.72463768115942,1.198825,84,3,33,1,2,1,"surfboard.jpg",1,4
"721",6,"white_butterfly",2,"green_flower","green_flower",1,0.728571428571429,0.97656,85,3,34,1,2,1,"donut.jpg",1,2
"722",6,"grey_butterfly",3,"green_flower","yellow_flower",0,0.71830985915493,0.79269,86,3,35,1,2,1,"apron.jpg",0,3
"723",6,"grey_butterfly",4,"yellow_flower","yellow_flower",1,0.722222222222222,0.73734,87,3,36,1,2,1,"footballhelmet.jpg",0,2
"724",6,"white_butterfly",2,"green_flower","yellow_flower",0,0.712328767123288,1.26879,88,4,1,0,0,1,"christmaslights.jpg",0,3
"725",6,"grey_butterfly",2,"green_flower","blue_flower",0,0.702702702702703,2.080465,89,4,2,0,0,1,"zebra.jpg",0,3
"726",6,"grey_butterfly",3,"blue_flower","blue_flower",1,0.706666666666667,0.662125,90,4,3,0,0,1,"giraffe.jpg",0,2
"727",6,"white_butterfly",4,"green_flower","yellow_flower",0,0.697368421052632,1.131615,91,4,4,0,0,1,"mirror02.jpg",1,1
"728",6,"white_butterfly",2,"yellow_flower","yellow_flower",1,0.701298701298701,1.027715,92,4,5,0,0,1,"recyclingbin.jpg",0,4
"729",6,"white_butterfly",1,NA,"yellow_flower",0,0.692307692307692,NA,93,4,6,0,0,1,"fishingrod.jpg",1,1
"730",6,"white_butterfly",4,"yellow_flower","yellow_flower",1,0.69620253164557,0.695765,94,4,7,0,0,1,"barn.jpg",0,2
"731",6,"grey_butterfly",2,"green_flower","blue_flower",0,0.6875,1.67878,95,4,8,0,0,1,"lightswitch01.jpg",0,1
"732",6,"grey_butterfly",2,"blue_flower","blue_flower",1,0.691358024691358,2.22281,96,4,9,0,0,1,"birdfeeder.jpg",0,2
"733",6,"white_butterfly",1,NA,"yellow_flower",0,0.682926829268293,NA,97,4,10,0,0,1,"cannon.jpg",0,2
"734",6,"grey_butterfly",3,"blue_flower","blue_flower",1,0.686746987951807,1.26499,98,4,11,0,0,1,"coffeemachine.jpg",0,3
"735",6,"white_butterfly",4,"yellow_flower","yellow_flower",1,0.69047619047619,0.628525,99,4,12,0,0,1,"treestump.jpg",0,1
"736",6,"grey_butterfly",4,"yellow_flower","blue_flower",0,0.682352941176471,0.50763,100,4,13,0,1,1,"panda.jpg",1,1
"738",6,"grey_butterfly",4,"blue_flower","blue_flower",1,0.689655172413793,1.347055,102,4,15,0,1,1,"cymbal.jpg",0,2
"739",6,"white_butterfly",1,NA,"yellow_flower",0,0.681818181818182,NA,103,4,16,0,1,1,"baseballglove.jpg",0,2
"740",6,"grey_butterfly",2,"green_flower","blue_flower",0,0.674157303370786,1.480515,104,4,17,0,1,1,"weddingcake.jpg",0,3
"741",6,"grey_butterfly",4,"yellow_flower","blue_flower",0,0.666666666666667,0.516925,105,4,18,0,1,1,"key07.jpg",0,1
"742",6,"white_butterfly",4,"yellow_flower","yellow_flower",1,0.67032967032967,0.619315,106,4,19,1,1,1,"tricycle.jpg",0,2
"743",6,"grey_butterfly",2,"green_flower","blue_flower",0,0.66304347826087,0.91085,107,4,20,1,1,1,"escalator.jpg",1,1
"744",6,"grey_butterfly",3,"yellow_flower","blue_flower",0,0.655913978494624,0.67671,108,4,21,1,1,1,"volleyball.jpg",0,2
"745",6,"grey_butterfly",2,"blue_flower","blue_flower",1,0.659574468085106,0.64463,109,4,22,1,1,1,"football.jpg",0,2
"746",6,"white_butterfly",5,"yellow_flower","yellow_flower",1,0.663157894736842,0.65076,110,4,23,1,1,1,"windturbine.jpg",0,1
"747",6,"white_butterfly",5,"yellow_flower","yellow_flower",1,0.666666666666667,0.601635,111,4,24,1,1,1,"locomotive.jpg",0,2
"748",6,"white_butterfly",3,"yellow_flower","yellow_flower",1,0.670103092783505,0.699255,112,4,25,1,2,1,"bowlingpin.jpg",0,2
"749",6,"white_butterfly",4,"yellow_flower","yellow_flower",1,0.673469387755102,0.57946,113,4,26,1,2,1,"musicstand.jpg",0,3
"750",6,"white_butterfly",3,"blue_flower","yellow_flower",0,0.666666666666667,0.938795,114,4,27,1,2,1,"car.jpg",0,3
"751",6,"white_butterfly",3,"yellow_flower","yellow_flower",1,0.67,0.662675,115,4,28,1,2,1,"dreamcatcher.jpg",0,2
"752",6,"grey_butterfly",5,"blue_flower","blue_flower",1,0.673267326732673,2.388225,116,4,29,1,2,1,"table01.jpg",0,2
"753",6,"white_butterfly",3,"yellow_flower","yellow_flower",1,0.676470588235294,0.61888,117,4,30,1,2,1,"jaguar.jpg",0,2
"755",6,"grey_butterfly",4,"blue_flower","blue_flower",1,0.682692307692308,0.678995,119,4,32,1,2,1,"skihelmet01.jpg",0,2
"756",6,"white_butterfly",4,"yellow_flower","yellow_flower",1,0.685714285714286,1.25403,120,4,33,1,2,1,"bleachers.jpg",0,3
"757",6,"grey_butterfly",4,"blue_flower","blue_flower",1,0.688679245283019,1.21293,121,4,34,1,2,1,"jackrabbit.jpg",1,4
"758",6,"grey_butterfly",3,"blue_flower","blue_flower",1,0.691588785046729,0.664315,122,4,35,1,2,1,"hulahoop.jpg",0,1
"759",6,"grey_butterfly",2,"blue_flower","blue_flower",1,0.694444444444444,0.74801,123,4,36,1,2,1,"dogsled.jpg",0,2
"760",6,"white_butterfly",3,"yellow_flower","red_flower",0,0.688073394495413,0.578235,124,5,1,0,0,1,"trombone.jpg",1,1
"761",6,"white_butterfly",5,"yellow_flower","red_flower",0,0.681818181818182,0.861265,125,5,2,0,0,1,"trafficlight.jpg",0,3
"762",6,"white_butterfly",2,"red_flower","red_flower",1,0.684684684684685,0.46893,126,5,3,0,0,1,"aquarium.jpg",0,2
"763",6,"white_butterfly",4,"red_flower","red_flower",1,0.6875,0.646095,127,5,4,0,0,1,"dolphin01.jpg",0,1
"764",6,"white_butterfly",2,"red_flower","red_flower",1,0.690265486725664,0.76007,128,5,5,0,0,1,"battleaxe.jpg",0,1
"765",6,"white_butterfly",4,"red_flower","red_flower",1,0.692982456140351,0.484475,129,5,6,0,0,1,"cookingpot.jpg",0,1
"766",6,"white_butterfly",2,"red_flower","red_flower",1,0.695652173913043,0.682535,130,5,7,0,0,1,"star.jpg",0,3
"767",6,"grey_butterfly",5,"yellow_flower","green_flower",0,0.689655172413793,0.882165,131,5,8,0,0,1,"bacon.jpg",0,4
"768",6,"grey_butterfly",3,"green_flower","green_flower",1,0.692307692307692,0.37538,132,5,9,0,0,1,"golfball.jpg",0,2
"769",6,"grey_butterfly",5,"green_flower","green_flower",1,0.694915254237288,0.86317,133,5,10,0,0,1,"cuttlefish.jpg",1,4
"770",6,"grey_butterfly",2,"green_flower","green_flower",1,0.697478991596639,1.45481,134,5,11,0,0,1,"tent.jpg",0,2
"771",6,"white_butterfly",1,NA,"red_flower",0,0.691666666666667,NA,135,5,12,0,0,1,"chipmunk.jpg",0,2
"772",6,"grey_butterfly",1,NA,"green_flower",0,0.685950413223141,NA,136,5,13,0,1,1,"artichoke01b.jpg",0,2
"773",6,"grey_butterfly",3,"green_flower","green_flower",1,0.688524590163934,0.573885,137,5,14,0,1,1,"ipad02.jpg",0,3
"774",6,"grey_butterfly",5,"green_flower","green_flower",1,0.691056910569106,0.931535,138,5,15,0,1,1,"cloud.jpg",0,3
"776",6,"grey_butterfly",4,"green_flower","green_flower",1,0.696,0.731605,140,5,17,0,1,1,"lionstatue.jpg",1,3
"777",6,"white_butterfly",5,"red_flower","red_flower",1,0.698412698412698,0.813615,141,5,18,0,1,1,"ironingboard01.jpg",0,3
"778",6,"grey_butterfly",5,"green_flower","green_flower",1,0.700787401574803,0.719615,142,5,19,1,1,1,"cork02.jpg",0,1
"779",6,"white_butterfly",4,"red_flower","red_flower",1,0.703125,0.61505,143,5,20,1,1,1,"hockeystick.jpg",0,2
"780",6,"grey_butterfly",2,"green_flower","green_flower",1,0.705426356589147,0.704735,144,5,21,1,1,1,"asianelephant.jpg",1,4
"781",6,"white_butterfly",5,"red_flower","red_flower",1,0.707692307692308,2.21368,145,5,22,1,1,1,"jeans01.jpg",0,2
"782",6,"grey_butterfly",4,"blue_flower","green_flower",0,0.702290076335878,0.41624,146,5,23,1,1,1,"hockeypuck.jpg",0,3
"783",6,"grey_butterfly",2,"green_flower","green_flower",1,0.704545454545455,0.711065,147,5,24,1,1,1,"lantern03.jpg",0,2
"784",6,"grey_butterfly",2,"green_flower","green_flower",1,0.706766917293233,0.65535,148,5,25,1,2,1,"monarchbutterfly.jpg",1,3
"785",6,"grey_butterfly",2,"red_flower","green_flower",0,0.701492537313433,0.8306,149,5,26,1,2,1,"tulip02.jpg",1,4
"786",6,"white_butterfly",3,"red_flower","red_flower",1,0.703703703703704,0.809935,150,5,27,1,2,1,"jellyfish.jpg",1,4
"787",6,"grey_butterfly",5,"green_flower","green_flower",1,0.705882352941177,1.79166,151,5,28,1,2,1,"callbell.jpg",0,2
"788",6,"white_butterfly",5,"red_flower","red_flower",1,0.708029197080292,0.807405,152,5,29,1,2,1,"basketball01.jpg",1,4
"789",6,"grey_butterfly",4,"green_flower","green_flower",1,0.710144927536232,0.50854,153,5,30,1,2,1,"jokercard.jpg",1,4
"790",6,"white_butterfly",3,"red_flower","red_flower",1,0.712230215827338,0.66645,154,5,31,1,2,1,"soccerball.jpg",0,2
"792",6,"grey_butterfly",2,"green_flower","green_flower",1,0.716312056737589,0.817265,156,5,33,1,2,1,"eyepatch.jpg",0,2
"793",6,"white_butterfly",3,"red_flower","red_flower",1,0.71830985915493,0.728825,157,5,34,1,2,1,"cashregister01.jpg",0,1
"794",6,"white_butterfly",2,"green_flower","red_flower",0,0.713286713286713,1.085455,158,5,35,1,2,1,"balcony02.jpg",0,2
"795",6,"grey_butterfly",3,"green_flower","green_flower",1,0.715277777777778,0.737695,159,5,36,1,2,1,"fingerprint.jpg",0,2
"811",7,"white_butterfly",5,"red_flower","blue_flower",0,0,0.94,16,2,1,0,0,1,"treestump.jpg",0,3
"812",7,"white_butterfly",3,"blue_flower","blue_flower",1,0.5,0.84,17,2,2,0,0,1,"spicerack.jpg",0,4
"813",7,"grey_butterfly",3,"yellow_flower","red_flower",0,0.333333333333333,0.907,18,2,3,0,0,1,"football.jpg",0,2
"814",7,"white_butterfly",4,"blue_flower","blue_flower",1,0.5,0.526,19,2,4,0,0,1,"bowlingpin.jpg",1,1
"815",7,"white_butterfly",3,"blue_flower","blue_flower",1,0.6,0.975,20,2,5,0,0,1,"beerbottle.jpg",0,2
"816",7,"white_butterfly",4,"blue_flower","blue_flower",1,0.666666666666667,0.644,21,2,6,0,0,1,"key07.jpg",0,2
"817",7,"grey_butterfly",5,"red_flower","red_flower",1,0.714285714285714,0.545,22,2,7,0,0,1,"moon.jpg",1,4
"818",7,"grey_butterfly",4,"red_flower","red_flower",1,0.75,0.656,23,2,8,0,0,1,"exitsign.jpg",1,4
"819",7,"white_butterfly",5,"blue_flower","blue_flower",1,0.777777777777778,0.596,24,2,9,0,0,1,"wheelchair.jpg",0,1
"820",7,"white_butterfly",2,"blue_flower","blue_flower",1,0.8,1.544,25,2,10,0,0,1,"file.jpg",1,3
"821",7,"grey_butterfly",2,"red_flower","red_flower",1,0.818181818181818,1.023,26,2,11,0,0,1,"pirateflag.jpg",0,4
"823",7,"white_butterfly",3,"blue_flower","blue_flower",1,0.846153846153846,1.116,28,2,13,0,1,1,"seagull.jpg",1,3
"824",7,"white_butterfly",4,"blue_flower","blue_flower",1,0.857142857142857,0.727,29,2,14,0,1,1,"fluorescentlightbulb.jpg",0,1
"825",7,"white_butterfly",5,"blue_flower","blue_flower",1,0.866666666666667,0.874,30,2,15,0,1,1,"xylophone.jpg",0,2
"826",7,"grey_butterfly",2,"green_flower","red_flower",0,0.8125,2.059,31,2,16,0,1,1,"basketball01.jpg",0,1
"827",7,"grey_butterfly",2,"red_flower","red_flower",1,0.823529411764706,1.66,32,2,17,0,1,1,"shelves.jpg",0,4
"828",7,"grey_butterfly",5,"red_flower","red_flower",1,0.833333333333333,0.623,33,2,18,0,1,1,"cork02.jpg",0,2
"829",7,"grey_butterfly",3,"red_flower","red_flower",1,0.842105263157895,0.67,34,2,19,1,1,1,"cloud.jpg",1,4
"830",7,"grey_butterfly",3,"red_flower","red_flower",1,0.85,0.579,35,2,20,1,1,1,"beaver.jpg",0,1
"831",7,"grey_butterfly",4,"red_flower","red_flower",1,0.857142857142857,0.461,36,2,21,1,1,1,"urinal.jpg",1,4
"832",7,"grey_butterfly",3,"red_flower","red_flower",1,0.863636363636364,0.617,37,2,22,1,1,1,"tulip02.jpg",0,2
"833",7,"white_butterfly",5,"red_flower","blue_flower",0,0.826086956521739,0.535,38,2,23,1,1,1,"horse.jpg",0,3
"834",7,"grey_butterfly",5,"red_flower","red_flower",1,0.833333333333333,0.48,39,2,24,1,1,1,"musicstand.jpg",0,4
"835",7,"white_butterfly",4,"blue_flower","blue_flower",1,0.84,0.481,40,2,25,1,2,1,"frisbee.jpg",0,2
"836",7,"grey_butterfly",5,"red_flower","red_flower",1,0.846153846153846,0.46,41,2,26,1,2,1,"footballhelmet.jpg",1,1
"837",7,"white_butterfly",3,"blue_flower","blue_flower",1,0.851851851851852,0.52,42,2,27,1,2,1,"soccerball.jpg",1,4
"838",7,"grey_butterfly",3,"red_flower","red_flower",1,0.857142857142857,0.606,43,2,28,1,2,1,"windshieldwiper02.jpg",0,1
"839",7,"white_butterfly",4,"blue_flower","blue_flower",1,0.862068965517241,0.475,44,2,29,1,2,1,"windturbine.jpg",0,4
"841",7,"white_butterfly",3,"blue_flower","blue_flower",1,0.870967741935484,0.47,46,2,31,1,2,1,"blender.jpg",0,1
"842",7,"white_butterfly",2,"blue_flower","blue_flower",1,0.875,0.999,47,2,32,1,2,1,"rockingchair.jpg",0,4
"843",7,"white_butterfly",4,"blue_flower","blue_flower",1,0.878787878787879,0.62,48,2,33,1,2,1,"desktopcomputer.jpg",0,4
"844",7,"grey_butterfly",5,"red_flower","red_flower",1,0.882352941176471,0.634,49,2,34,1,2,1,"tricycle.jpg",0,2
"845",7,"grey_butterfly",4,"red_flower","red_flower",1,0.885714285714286,0.526,50,2,35,1,2,1,"dreamcatcher.jpg",1,4
"846",7,"white_butterfly",5,"blue_flower","blue_flower",1,0.888888888888889,0.536,51,2,36,1,2,1,"contactlens.jpg",0,1
"847",7,"white_butterfly",5,"blue_flower","green_flower",0,0.864864864864865,0.469,52,3,1,0,0,1,"sailboat.jpg",0,2
"848",7,"white_butterfly",5,"blue_flower","green_flower",0,0.842105263157895,0.414,53,3,2,0,0,1,"asianelephant.jpg",1,1
"849",7,"grey_butterfly",4,"red_flower","yellow_flower",0,0.82051282051282,0.579,54,3,3,0,0,1,"triangle.jpg",0,4
"850",7,"white_butterfly",4,"green_flower","green_flower",1,0.825,0.783,55,3,4,0,0,1,"redonion.jpg",0,4
"851",7,"grey_butterfly",5,"red_flower","yellow_flower",0,0.804878048780488,0.71,56,3,5,0,0,1,"acorn.jpg",0,1
"852",7,"white_butterfly",2,"green_flower","green_flower",1,0.80952380952381,0.683,57,3,6,0,0,1,"communitymailbox.jpg",0,4
"853",7,"white_butterfly",2,"yellow_flower","green_flower",0,0.790697674418605,1.788,58,3,7,0,0,1,"handheldtelescope.jpg",0,4
"854",7,"grey_butterfly",4,"yellow_flower","yellow_flower",1,0.795454545454545,0.499,59,3,8,0,0,1,"callbell.jpg",1,2
"855",7,"white_butterfly",3,"green_flower","green_flower",1,0.8,1.396,60,3,9,0,0,1,"candycane01a.jpg",0,3
"856",7,"grey_butterfly",2,"yellow_flower","yellow_flower",1,0.804347826086957,0.799,61,3,10,0,0,1,"coffeemaker.jpg",0,4
"857",7,"white_butterfly",2,"green_flower","green_flower",1,0.808510638297872,0.756,62,3,11,0,0,1,"electricguitar01.jpg",1,4
"858",7,"grey_butterfly",3,"yellow_flower","yellow_flower",1,0.8125,0.537,63,3,12,0,0,1,"weddingcake.jpg",1,4
"859",7,"grey_butterfly",3,"yellow_flower","yellow_flower",1,0.816326530612245,0.71,64,3,13,0,1,1,"balcony02.jpg",0,4
"860",7,"grey_butterfly",4,"yellow_flower","yellow_flower",1,0.82,0.529,65,3,14,0,1,1,"cashregister01.jpg",0,4
"861",7,"white_butterfly",3,"green_flower","green_flower",1,0.823529411764706,0.587,66,3,15,0,1,1,"doubledoors.jpg",1,4
"863",7,"white_butterfly",2,"yellow_flower","green_flower",0,0.811320754716981,1.122,68,3,17,0,1,1,"waterfountain02.jpg",0,2
"864",7,"grey_butterfly",2,"green_flower","yellow_flower",0,0.796296296296296,1.235,69,3,18,0,1,1,"panda.jpg",0,4
"865",7,"white_butterfly",5,"green_flower","green_flower",1,0.8,0.571,70,3,19,1,1,1,"greywolf.jpg",1,3
"866",7,"white_butterfly",2,"green_flower","green_flower",1,0.803571428571429,1.168,71,3,20,1,1,1,"forklift.jpg",0,4
"867",7,"grey_butterfly",2,"yellow_flower","yellow_flower",1,0.807017543859649,0.651,72,3,21,1,1,1,"barrel01.jpg",0,2
"868",7,"grey_butterfly",2,"yellow_flower","yellow_flower",1,0.810344827586207,0.566,73,3,22,1,1,1,"fingerprint.jpg",1,4
"869",7,"grey_butterfly",4,"yellow_flower","yellow_flower",1,0.813559322033898,1.03,74,3,23,1,1,1,"bacon.jpg",0,2
"870",7,"white_butterfly",3,"green_flower","green_flower",1,0.816666666666667,0.582,75,3,24,1,1,1,"witchhat.jpg",0,3
"871",7,"white_butterfly",2,"green_flower","green_flower",1,0.819672131147541,0.685,76,3,25,1,2,1,"hotdog.jpg",0,1
"872",7,"grey_butterfly",5,"yellow_flower","yellow_flower",1,0.82258064516129,0.644,77,3,26,1,2,1,"jeans01.jpg",0,2
"873",7,"white_butterfly",3,"green_flower","green_flower",1,0.825396825396825,0.996,78,3,27,1,2,1,"shovel01.jpg",1,3
"874",7,"white_butterfly",4,"green_flower","green_flower",1,0.828125,1.046,79,3,28,1,2,1,"skihelmet01.jpg",0,3
"875",7,"grey_butterfly",2,"yellow_flower","yellow_flower",1,0.830769230769231,0.643,80,3,29,1,2,1,"duck01.jpg",0,4
"876",7,"white_butterfly",4,"green_flower","green_flower",1,0.833333333333333,0.48,81,3,30,1,2,1,"vacuumcleaner01.jpg",0,4
"877",7,"grey_butterfly",4,"yellow_flower","yellow_flower",1,0.835820895522388,0.613,82,3,31,1,2,1,"chime.jpg",0,2
"878",7,"grey_butterfly",2,"yellow_flower","yellow_flower",1,0.838235294117647,0.729,83,3,32,1,2,1,"chipmunk.jpg",1,4
"880",7,"white_butterfly",2,"green_flower","green_flower",1,0.842857142857143,0.609,85,3,34,1,2,1,"jellyfish.jpg",1,4
"881",7,"grey_butterfly",5,"yellow_flower","yellow_flower",1,0.845070422535211,0.591,86,3,35,1,2,1,"apron.jpg",0,4
"882",7,"grey_butterfly",4,"yellow_flower","yellow_flower",1,0.847222222222222,0.495,87,3,36,1,2,1,"scalpel.jpg",0,4
"883",7,"white_butterfly",2,"green_flower","yellow_flower",0,0.835616438356164,0.678,88,4,1,0,0,1,"monarchbutterfly.jpg",1,4
"884",7,"grey_butterfly",5,"yellow_flower","blue_flower",0,0.824324324324324,0.51,89,4,2,0,0,1,"baseballglove.jpg",1,4
"885",7,"grey_butterfly",2,"yellow_flower","blue_flower",0,0.813333333333333,1.168,90,4,3,0,0,1,"granolabar01.jpg",1,2
"886",7,"white_butterfly",4,"green_flower","yellow_flower",0,0.802631578947368,1.443,91,4,4,0,0,1,"hockeypuck.jpg",0,1
"887",7,"white_butterfly",2,"yellow_flower","yellow_flower",1,0.805194805194805,0.579,92,4,5,0,0,1,"bookshelf.jpg",0,4
"888",7,"white_butterfly",2,"yellow_flower","yellow_flower",1,0.807692307692308,1.031,93,4,6,0,0,1,"gps.jpg",0,4
"889",7,"white_butterfly",4,"yellow_flower","yellow_flower",1,0.810126582278481,0.7,94,4,7,0,0,1,"porcupine.jpg",0,2
"890",7,"grey_butterfly",3,"blue_flower","blue_flower",1,0.8125,1.152,95,4,8,0,0,1,"giraffe.jpg",0,2
"891",7,"grey_butterfly",2,"blue_flower","blue_flower",1,0.814814814814815,0.702,96,4,9,0,0,1,"toyanimal05.jpg",1,4
"892",7,"white_butterfly",5,"yellow_flower","yellow_flower",1,0.817073170731707,1.752,97,4,10,0,0,1,"hulahoop.jpg",1,2
"893",7,"grey_butterfly",2,"yellow_flower","blue_flower",0,0.807228915662651,0.871,98,4,11,0,0,1,"treadmill.jpg",1,4
"894",7,"white_butterfly",4,"yellow_flower","yellow_flower",1,0.80952380952381,0.583,99,4,12,0,0,1,"volleyball.jpg",1,1
"895",7,"grey_butterfly",3,"blue_flower","blue_flower",1,0.811764705882353,0.504,100,4,13,0,1,1,"whiteout.jpg",0,2
"897",7,"grey_butterfly",4,"blue_flower","blue_flower",1,0.816091954022989,0.82,102,4,15,0,1,1,"sandcastle.jpg",0,4
"898",7,"white_butterfly",4,"yellow_flower","yellow_flower",1,0.818181818181818,0.468,103,4,16,0,1,1,"ironingboard01.jpg",0,1
"899",7,"grey_butterfly",4,"blue_flower","blue_flower",1,0.820224719101124,0.496,104,4,17,0,1,1,"cookingpot.jpg",0,3
"900",7,"grey_butterfly",5,"blue_flower","blue_flower",1,0.822222222222222,0.369,105,4,18,0,1,1,"snowglobe.jpg",0,2
"901",7,"white_butterfly",4,"yellow_flower","yellow_flower",1,0.824175824175824,0.43,106,4,19,1,1,1,"jaguar.jpg",1,1
"902",7,"grey_butterfly",3,"blue_flower","blue_flower",1,0.826086956521739,0.39,107,4,20,1,1,1,"escalator.jpg",0,4
"903",7,"grey_butterfly",4,"blue_flower","blue_flower",1,0.827956989247312,0.395,108,4,21,1,1,1,"surfboard.jpg",0,4
"904",7,"grey_butterfly",2,"blue_flower","blue_flower",1,0.829787234042553,0.907,109,4,22,1,1,1,"winniethepooh.jpg",0,4
"905",7,"white_butterfly",5,"yellow_flower","yellow_flower",1,0.831578947368421,0.491,110,4,23,1,1,1,"lantern03.jpg",0,4
"906",7,"white_butterfly",5,"yellow_flower","yellow_flower",1,0.833333333333333,0.411,111,4,24,1,1,1,"polarbear.jpg",0,3
"907",7,"white_butterfly",3,"yellow_flower","yellow_flower",1,0.835051546391753,0.47,112,4,25,1,2,1,"microwave.jpg",0,3
"908",7,"white_butterfly",4,"yellow_flower","yellow_flower",1,0.836734693877551,0.452,113,4,26,1,2,1,"dalmatian.jpg",0,3
"909",7,"white_butterfly",2,"yellow_flower","yellow_flower",1,0.838383838383838,0.541,114,4,27,1,2,1,"trafficlight.jpg",0,4
"910",7,"white_butterfly",3,"yellow_flower","yellow_flower",1,0.84,0.519,115,4,28,1,2,1,"birdfeeder.jpg",0,3
"911",7,"grey_butterfly",5,"blue_flower","blue_flower",1,0.841584158415842,0.536,116,4,29,1,2,1,"golfball.jpg",1,4
"913",7,"white_butterfly",3,"yellow_flower","yellow_flower",1,0.844660194174757,0.458,118,4,31,1,2,1,"handbrush02.jpg",0,3
"914",7,"grey_butterfly",4,"blue_flower","blue_flower",1,0.846153846153846,0.435,119,4,32,1,2,1,"dogsled.jpg",1,4
"915",7,"white_butterfly",4,"yellow_flower","yellow_flower",1,0.847619047619048,0.842,120,4,33,1,2,1,"seaturtle.jpg",1,4
"916",7,"grey_butterfly",4,"blue_flower","blue_flower",1,0.849056603773585,0.401,121,4,34,1,2,1,"canoepaddle02.jpg",1,1
"917",7,"grey_butterfly",3,"blue_flower","blue_flower",1,0.850467289719626,0.556,122,4,35,1,2,1,"trophy01.jpg",0,3
"918",7,"grey_butterfly",2,"blue_flower","blue_flower",1,0.851851851851852,0.63,123,4,36,1,2,1,"donut.jpg",1,2
"919",7,"white_butterfly",3,"yellow_flower","red_flower",0,0.844036697247706,1.324,124,5,1,0,0,1,"artichoke01b.jpg",1,4
"920",7,"white_butterfly",5,"yellow_flower","red_flower",0,0.836363636363636,0.497,125,5,2,0,0,1,"lintroller.jpg",0,2
"921",7,"white_butterfly",2,"red_flower","red_flower",1,0.837837837837838,0.657,126,5,3,0,0,1,"fridge.jpg",0,4
"922",7,"white_butterfly",4,"red_flower","red_flower",1,0.839285714285714,0.503,127,5,4,0,0,1,"shower.jpg",0,4
"923",7,"white_butterfly",2,"red_flower","red_flower",1,0.84070796460177,0.711,128,5,5,0,0,1,"zebra.jpg",1,1
"924",7,"white_butterfly",4,"red_flower","red_flower",1,0.842105263157895,0.442,129,5,6,0,0,1,"jokercard.jpg",1,2
"925",7,"white_butterfly",2,"red_flower","red_flower",1,0.843478260869565,0.722,130,5,7,0,0,1,"recyclingbin.jpg",0,4
"926",7,"grey_butterfly",5,"yellow_flower","green_flower",0,0.836206896551724,0.512,131,5,8,0,0,1,"aquarium.jpg",0,4
"927",7,"grey_butterfly",3,"green_flower","green_flower",1,0.837606837606838,0.479,132,5,9,0,0,1,"skiboot01a.jpg",0,4
"928",7,"grey_butterfly",5,"green_flower","green_flower",1,0.838983050847458,1.066,133,5,10,0,0,1,"cuttlefish.jpg",1,4
"929",7,"grey_butterfly",2,"green_flower","green_flower",1,0.840336134453782,0.682,134,5,11,0,0,1,"stool01.jpg",0,2
"930",7,"white_butterfly",2,"red_flower","red_flower",1,0.841666666666667,0.624,135,5,12,0,0,1,"pumpkin.jpg",1,4
"931",7,"grey_butterfly",4,"green_flower","green_flower",1,0.84297520661157,0.9,136,5,13,0,1,1,"mirror02.jpg",1,2
"932",7,"grey_butterfly",3,"green_flower","green_flower",1,0.844262295081967,0.428,137,5,14,0,1,1,"crab01.jpg",1,4
"934",7,"white_butterfly",5,"red_flower","red_flower",1,0.846774193548387,1.075,139,5,16,0,1,1,"fishskeleton.jpg",1,4
"935",7,"grey_butterfly",4,"green_flower","green_flower",1,0.848,0.561,140,5,17,0,1,1,"jackrabbit.jpg",1,4
"936",7,"white_butterfly",5,"red_flower","red_flower",1,0.849206349206349,0.562,141,5,18,0,1,1,"dartboard.jpg",1,4
"937",7,"grey_butterfly",3,"red_flower","green_flower",0,0.84251968503937,0.555,142,5,19,1,1,1,"brownsugar.jpg",1,4
"938",7,"white_butterfly",4,"red_flower","red_flower",1,0.84375,0.795,143,5,20,1,1,1,"cremebrulee.jpg",1,1
"939",7,"grey_butterfly",2,"green_flower","green_flower",1,0.844961240310077,0.872,144,5,21,1,1,1,"doghouse.jpg",1,4
"940",7,"white_butterfly",5,"red_flower","red_flower",1,0.846153846153846,0.439,145,5,22,1,1,1,"filingcabinet.jpg",0,3
"941",7,"grey_butterfly",5,"green_flower","green_flower",1,0.847328244274809,0.402,146,5,23,1,1,1,"hockeystick.jpg",0,1
"942",7,"grey_butterfly",2,"green_flower","green_flower",1,0.848484848484849,0.735,147,5,24,1,1,1,"bolt01a.jpg",1,4
"943",7,"grey_butterfly",2,"green_flower","green_flower",1,0.849624060150376,0.619,148,5,25,1,2,1,"ipad02.jpg",1,4
"944",7,"grey_butterfly",3,"green_flower","green_flower",1,0.850746268656716,0.716,149,5,26,1,2,1,"cannon.jpg",0,4
"945",7,"white_butterfly",3,"red_flower","red_flower",1,0.851851851851852,0.686,150,5,27,1,2,1,"bathtub.jpg",0,4
"946",7,"grey_butterfly",5,"green_flower","green_flower",1,0.852941176470588,0.556,151,5,28,1,2,1,"cactus.jpg",1,4
"947",7,"white_butterfly",5,"red_flower","red_flower",1,0.854014598540146,0.603,152,5,29,1,2,1,"lionstatue.jpg",0,1
"948",7,"grey_butterfly",4,"green_flower","green_flower",1,0.855072463768116,0.698,153,5,30,1,2,1,"locomotive.jpg",0,4
"949",7,"white_butterfly",3,"red_flower","red_flower",1,0.856115107913669,0.873,154,5,31,1,2,1,"stepladder.jpg",0,3
"951",7,"grey_butterfly",2,"green_flower","green_flower",1,0.858156028368794,0.755,156,5,33,1,2,1,"battleaxe.jpg",0,4
"952",7,"white_butterfly",3,"red_flower","red_flower",1,0.859154929577465,0.536,157,5,34,1,2,1,"crown.jpg",1,4
"953",7,"white_butterfly",2,"green_flower","red_flower",0,0.853146853146853,0.575,158,5,35,1,2,1,"snowshovel.jpg",1,4
"954",7,"grey_butterfly",3,"green_flower","green_flower",1,0.854166666666667,0.483,159,5,36,1,2,1,"lightswitch01.jpg",1,4
"970",8,"white_butterfly",3,"blue_flower","blue_flower",1,1,0.578,16,2,1,0,0,1,"cashregister01.jpg",0,1
"971",8,"white_butterfly",3,"blue_flower","blue_flower",1,1,1.398,17,2,2,0,0,1,"file.jpg",1,2
"972",8,"grey_butterfly",2,"red_flower","red_flower",1,1,1.474,18,2,3,0,0,1,"scalpel.jpg",0,1
"973",8,"white_butterfly",4,"blue_flower","blue_flower",1,1,0.547,19,2,4,0,0,1,"car.jpg",0,2
"974",8,"white_butterfly",3,"blue_flower","blue_flower",1,1,0.934,20,2,5,0,0,1,"forklift.jpg",0,1
"975",8,"white_butterfly",4,"blue_flower","blue_flower",1,1,1.027,21,2,6,0,0,1,"snowglobe.jpg",1,4
"976",8,"grey_butterfly",5,"red_flower","red_flower",1,1,0.833,22,2,7,0,0,1,"rollerblade.jpg",0,2
"977",8,"grey_butterfly",4,"red_flower","red_flower",1,1,0.98,23,2,8,0,0,1,"treestump.jpg",0,2
"978",8,"white_butterfly",5,"blue_flower","blue_flower",1,1,0.949,24,2,9,0,0,1,"tricycle.jpg",0,2
"979",8,"white_butterfly",2,"blue_flower","blue_flower",1,1,0.817,25,2,10,0,0,1,"beaver.jpg",0,2
"980",8,"grey_butterfly",2,"red_flower","red_flower",1,1,1.055,26,2,11,0,0,1,"fridge.jpg",1,3
"981",8,"grey_butterfly",3,"red_flower","red_flower",1,1,0.783,27,2,12,0,0,1,"moon.jpg",1,4
"982",8,"white_butterfly",3,"blue_flower","blue_flower",1,1,0.732,28,2,13,0,1,1,"bowlingpin.jpg",1,4
"983",8,"white_butterfly",4,"blue_flower","blue_flower",1,1,1.306,29,2,14,0,1,1,"dolphin01.jpg",0,2
"985",8,"grey_butterfly",3,"red_flower","red_flower",1,1,0.924,31,2,16,0,1,1,"sandcastle.jpg",1,4
"986",8,"grey_butterfly",2,"red_flower","red_flower",1,1,0.71,32,2,17,0,1,1,"mirror02.jpg",0,2
"987",8,"grey_butterfly",5,"red_flower","red_flower",1,1,0.819,33,2,18,0,1,1,"bacon.jpg",0,2
"988",8,"grey_butterfly",3,"red_flower","red_flower",1,1,1.51,34,2,19,1,1,1,"triangle.jpg",1,4
"989",8,"grey_butterfly",3,"red_flower","red_flower",1,1,0.608,35,2,20,1,1,1,"jokercard.jpg",1,3
"990",8,"grey_butterfly",4,"red_flower","red_flower",1,1,0.697,36,2,21,1,1,1,"bookshelf.jpg",1,4
"991",8,"grey_butterfly",3,"red_flower","red_flower",1,1,0.927,37,2,22,1,1,1,"jeans01.jpg",1,2
"992",8,"white_butterfly",3,"blue_flower","blue_flower",1,1,1.15,38,2,23,1,1,1,"dogsled.jpg",1,3
"993",8,"grey_butterfly",5,"red_flower","red_flower",1,1,0.774,39,2,24,1,1,1,"artichoke01b.jpg",1,4
"994",8,"white_butterfly",4,"blue_flower","blue_flower",1,1,0.818,40,2,25,1,2,1,"gong.jpg",0,2
"995",8,"grey_butterfly",5,"red_flower","red_flower",1,1,0.765,41,2,26,1,2,1,"exitsign.jpg",1,4
"996",8,"white_butterfly",3,"blue_flower","blue_flower",1,1,0.681,42,2,27,1,2,1,"zebra.jpg",1,3
"997",8,"grey_butterfly",3,"red_flower","red_flower",1,1,0.892,43,2,28,1,2,1,"apron.jpg",1,4
"998",8,"white_butterfly",4,"blue_flower","blue_flower",1,1,0.963,44,2,29,1,2,1,"dalmatian.jpg",1,4
"1000",8,"white_butterfly",3,"blue_flower","blue_flower",1,1,0.761,46,2,31,1,2,1,"whiteout.jpg",1,4
"1001",8,"white_butterfly",2,"blue_flower","blue_flower",1,1,0.686,47,2,32,1,2,1,"star.jpg",1,4
"1002",8,"white_butterfly",4,"blue_flower","blue_flower",1,1,0.874,48,2,33,1,2,1,"golfball.jpg",1,3
"1003",8,"grey_butterfly",5,"red_flower","red_flower",1,1,0.615,49,2,34,1,2,1,"skateboard.jpg",1,4
"1004",8,"grey_butterfly",4,"red_flower","red_flower",1,1,0.902,50,2,35,1,2,1,"crab01.jpg",1,3
"1005",8,"white_butterfly",5,"blue_flower","blue_flower",1,1,0.594,51,2,36,1,2,1,"snowman.jpg",1,4
"1006",8,"white_butterfly",5,"blue_flower","green_flower",0,0.972972972972973,1.312,52,3,1,0,0,1,"cork02.jpg",1,4
"1007",8,"white_butterfly",5,"blue_flower","green_flower",0,0.947368421052632,0.797,53,3,2,0,0,1,"trombone.jpg",1,2
"1008",8,"grey_butterfly",4,"red_flower","yellow_flower",0,0.923076923076923,0.533,54,3,3,0,0,1,"electricguitar01.jpg",0,2
"1009",8,"white_butterfly",4,"green_flower","green_flower",1,0.925,0.64,55,3,4,0,0,1,"hockeypuck.jpg",0,2
"1010",8,"grey_butterfly",3,"yellow_flower","yellow_flower",1,0.926829268292683,0.892,56,3,5,0,0,1,"sailboat.jpg",1,3
"1011",8,"white_butterfly",2,"green_flower","green_flower",1,0.928571428571429,1.465,57,3,6,0,0,1,"surfboard.jpg",0,2
"1012",8,"white_butterfly",5,"green_flower","green_flower",1,0.930232558139535,0.573,58,3,7,0,0,1,"desktopcomputer.jpg",0,2
"1013",8,"grey_butterfly",4,"yellow_flower","yellow_flower",1,0.931818181818182,0.576,59,3,8,0,0,1,"baseballglove.jpg",1,3
"1014",8,"white_butterfly",3,"green_flower","green_flower",1,0.933333333333333,1.811,60,3,9,0,0,1,"bolt01a.jpg",0,1
"1015",8,"grey_butterfly",2,"yellow_flower","yellow_flower",1,0.934782608695652,1.014,61,3,10,0,0,1,"spicerack.jpg",1,4
"1016",8,"white_butterfly",3,"yellow_flower","green_flower",0,0.914893617021277,1.393,62,3,11,0,0,1,"hockeystick.jpg",0,2
"1017",8,"grey_butterfly",3,"yellow_flower","yellow_flower",1,0.916666666666667,1.55,63,3,12,0,0,1,"ipad02.jpg",1,4
"1018",8,"grey_butterfly",3,"yellow_flower","yellow_flower",1,0.918367346938776,0.575,64,3,13,0,1,1,"locomotive.jpg",1,4
"1019",8,"grey_butterfly",4,"yellow_flower","yellow_flower",1,0.92,1.154,65,3,14,0,1,1,"lintroller.jpg",0,2
"1021",8,"white_butterfly",3,"green_flower","green_flower",1,0.923076923076923,0.665,67,3,16,0,1,1,"coffeemachine.jpg",1,4
"1022",8,"white_butterfly",3,"green_flower","green_flower",1,0.924528301886792,0.609,68,3,17,0,1,1,"asianelephant.jpg",1,4
"1023",8,"grey_butterfly",3,"yellow_flower","yellow_flower",1,0.925925925925926,0.593,69,3,18,0,1,1,"showerhead01.jpg",1,3
"1024",8,"white_butterfly",5,"green_flower","green_flower",1,0.927272727272727,1.663,70,3,19,1,1,1,"snowshovel.jpg",0,2
"1025",8,"white_butterfly",2,"green_flower","green_flower",1,0.928571428571429,0.857,71,3,20,1,1,1,"hulahoop.jpg",0,2
