"SubNum","butterfly","response","respFlower","corrFlower","accuracy","cumAcc","RT","trialNum","listN","NfromChange","befAft","befAft2","trialCond","objfile","FlowNum","Q1","Q2","Q3","Q4","P1","P2","P3","P4","Prob","Delta","uncertainty","uncertainty2","CPP"
2,1,3,"yellow_flower","blue_flower",0,0,0.69177,1,0,1,0,0,1,"toolbox02.jpg",4,0,0,0,0,0.25,0.25,0.25,0.25,0.25,0,1,1.38629436111989,NA
2,1,5,"green_flower","blue_flower",0,0,1.300895,2,0,2,0,0,1,"firehydrant.jpg",2,0,0,0,0,0.25,0.25,0.25,0.25,0.25,0,1,1.38629436111989,NA
2,2,4,"green_flower","red_flower",0,0,1.38265,3,0,3,0,0,1,"shed02.jpg",2,0,0,0,0,0.25,0.25,0.25,0.25,0.25,0,1,1.38629436111989,NA
2,2,4,"red_flower","red_flower",1,0.25,0.705845,4,0,4,0,0,1,"toucan.jpg",3,0,0,1,0,0.25,0.25,0.25,0.25,0.25,1,1,1.38629436111989,NA
2,1,2,"yellow_flower","blue_flower",0,0.2,0.937415,5,0,5,0,0,1,"skunk.jpg",4,0,0,0,0,0.25,0.25,0.25,0.25,0.25,0,1,1.38629436111989,NA
2,1,5,"blue_flower","blue_flower",1,0.333333333333333,1.841375,6,0,6,0,1,1,"motorcycle.jpg",1,1,0,0,0,0.25,0.25,0.25,0.25,0.25,1,1,1.38629436111989,NA
2,2,3,"green_flower","red_flower",0,0.285714285714286,0.668035,7,0,7,0,1,1,"flipflop01b.jpg",2,0,0,1,0,0.0924611032711297,0.0924611032711297,0.722616690186611,0.0924611032711297,0.0924611032711297,0,0.909691292169593,0.895201652524789,NA
2,2,1,NA,"red_flower",0,0.25,NA,8,0,8,0,1,1,"corn02.jpg",NA,0,0,1,0,0.0924611032711297,0.0924611032711297,0.722616690186611,0.0924611032711297,NA,NA,0.909691292169593,0.895201652524789,NA
2,1,2,"blue_flower","blue_flower",1,0.333333333333333,0.535065,9,0,9,1,1,1,"birdfeeder.jpg",1,1,0,0,0,0.722616690186611,0.0924611032711297,0.0924611032711297,0.0924611032711297,0.722616690186611,0,0.909691292169593,0.895201652524789,NA
2,2,4,"green_flower","red_flower",0,0.3,0.686855,10,0,10,1,1,1,"marble.jpg",2,0,0,1,0,0.0924611032711297,0.0924611032711297,0.722616690186611,0.0924611032711297,0.0924611032711297,0,0.909691292169593,0.895201652524789,NA
2,2,5,"blue_flower","red_flower",0,0.272727272727273,1.40441,11,0,11,1,2,1,"shelf.jpg",1,0,0,1,0,0.0924611032711297,0.0924611032711297,0.722616690186611,0.0924611032711297,0.0924611032711297,0,0.909691292169593,0.895201652524789,NA
2,1,4,"blue_flower","blue_flower",1,0.333333333333333,0.535765,12,0,12,1,2,1,"foosballtable.jpg",1,1,0,0,0,0.722616690186611,0.0924611032711297,0.0924611032711297,0.0924611032711297,0.722616690186611,0,0.909691292169593,0.895201652524789,NA
2,1,4,"blue_flower","blue_flower",1,0.384615384615385,1.227495,13,0,13,1,2,1,"tennisracket.jpg",1,1,0,0,0,0.722616690186611,0.0924611032711297,0.0924611032711297,0.0924611032711297,0.722616690186611,0,0.909691292169593,0.895201652524789,NA
2,2,3,"red_flower","red_flower",1,0.428571428571429,1.59228,14,0,14,1,2,1,"wheat.jpg",3,0,0,1,0,0.0924611032711297,0.0924611032711297,0.722616690186611,0.0924611032711297,0.722616690186611,0,0.909691292169593,0.895201652524789,NA
2,1,4,"blue_flower","blue_flower",1,0.466666666666667,1.43778,15,0,15,1,2,1,"tire.jpg",1,1,0,0,0,0.722616690186611,0.0924611032711297,0.0924611032711297,0.0924611032711297,0.722616690186611,0,0.909691292169593,0.895201652524789,NA
2,1,4,"yellow_flower","blue_flower",0,0,0.89249,16,2,1,0,0,1,"handbrush02.jpg",4,1,0,0,0,0.722616690186611,0.0924611032711297,0.0924611032711297,0.0924611032711297,0.0924611032711297,0,0.909691292169593,0.895201652524789,NA
2,1,4,"green_flower","blue_flower",0,0,1.00008,17,2,2,0,0,1,"treadmill.jpg",2,1,0,0,0,0.722616690186611,0.0924611032711297,0.0924611032711297,0.0924611032711297,0.0924611032711297,0,0.909691292169593,0.895201652524789,NA
2,2,2,"red_flower","red_flower",1,0.333333333333333,1.709635,18,2,3,0,0,1,"shower.jpg",3,0,0,1,0,0.0924611032711297,0.0924611032711297,0.722616690186611,0.0924611032711297,0.722616690186611,0,0.909691292169593,0.895201652524789,NA
2,1,4,"blue_flower","blue_flower",1,0.5,0.429325,19,2,4,0,0,1,"skateboard.jpg",1,1,0,0,0,0.722616690186611,0.0924611032711297,0.0924611032711297,0.0924611032711297,0.722616690186611,0,0.909691292169593,0.895201652524789,NA
2,1,3,"blue_flower","blue_flower",1,0.6,0.550235,20,2,5,0,0,1,"barrel01.jpg",1,1,0,0,0,0.722616690186611,0.0924611032711297,0.0924611032711297,0.0924611032711297,0.722616690186611,0,0.909691292169593,0.895201652524789,NA
2,1,4,"blue_flower","blue_flower",1,0.666666666666667,0.936505,21,2,6,0,0,1,"xylophone.jpg",1,1,0,0,0,0.722616690186611,0.0924611032711297,0.0924611032711297,0.0924611032711297,0.722616690186611,0,0.909691292169593,0.895201652524789,NA
2,2,5,"red_flower","red_flower",1,0.714285714285714,0.984575,22,2,7,0,0,1,"forklift.jpg",3,0,0,1,0,0.0924611032711297,0.0924611032711297,0.722616690186611,0.0924611032711297,0.722616690186611,0,0.909691292169593,0.895201652524789,NA
2,2,4,"red_flower","red_flower",1,0.75,0.50491,23,2,8,0,0,1,"scalpel.jpg",3,0,0,1,0,0.0924611032711297,0.0924611032711297,0.722616690186611,0.0924611032711297,0.722616690186611,0,0.909691292169593,0.895201652524789,NA
2,1,5,"blue_flower","blue_flower",1,0.777777777777778,0.67293,24,2,9,0,0,1,"sailboat.jpg",1,1,0,0,0,0.722616690186611,0.0924611032711297,0.0924611032711297,0.0924611032711297,0.722616690186611,0,0.909691292169593,0.895201652524789,NA
2,1,2,"blue_flower","blue_flower",1,0.8,1.51986,25,2,10,0,0,1,"snowman.jpg",1,1,0,0,0,0.722616690186611,0.0924611032711297,0.0924611032711297,0.0924611032711297,0.722616690186611,0,0.909691292169593,0.895201652524789,NA
2,2,2,"red_flower","red_flower",1,0.818181818181818,0.72473,26,2,11,0,0,1,"stool01.jpg",3,0,0,1,0,0.0924611032711297,0.0924611032711297,0.722616690186611,0.0924611032711297,0.722616690186611,0,0.909691292169593,0.895201652524789,NA
2,2,3,"red_flower","red_flower",1,0.833333333333333,1.93107,27,2,12,0,0,1,"butterfly1.jpg",3,0,0,1,0,0.0924611032711297,0.0924611032711297,0.722616690186611,0.0924611032711297,0.722616690186611,0,0.909691292169593,0.895201652524789,NA
2,1,3,"blue_flower","blue_flower",1,0.846153846153846,1.63175,28,2,13,0,1,1,"desktopcomputer.jpg",1,1,0,0,0,0.722616690186611,0.0924611032711297,0.0924611032711297,0.0924611032711297,0.722616690186611,0,0.909691292169593,0.895201652524789,NA
2,1,5,"red_flower","blue_flower",0,0.785714285714286,1.459175,29,2,14,0,1,1,"triangle.jpg",3,1,0,0,0,0.722616690186611,0.0924611032711297,0.0924611032711297,0.0924611032711297,0.0924611032711297,0,0.909691292169593,0.895201652524789,NA
2,1,5,"blue_flower","blue_flower",1,0.8,0.878775,30,2,15,0,1,1,"dartboard.jpg",1,1,0,0,0,0.722616690186611,0.0924611032711297,0.0924611032711297,0.0924611032711297,0.722616690186611,0,0.909691292169593,0.895201652524789,NA
2,2,5,"blue_flower","red_flower",0,0.75,0.782865,31,2,16,0,1,1,"electricguitar01.jpg",1,0,0,1,0,0.0924611032711297,0.0924611032711297,0.722616690186611,0.0924611032711297,0.0924611032711297,0,0.909691292169593,0.895201652524789,NA
2,2,2,"red_flower","red_flower",1,0.764705882352941,1.115775,32,2,17,0,1,1,"doubledoors.jpg",3,0,0,1,0,0.0924611032711297,0.0924611032711297,0.722616690186611,0.0924611032711297,0.722616690186611,0,0.909691292169593,0.895201652524789,NA
2,2,5,"red_flower","red_flower",1,0.777777777777778,0.55015,33,2,18,0,1,1,"waterfountain02.jpg",3,0,0,1,0,0.0924611032711297,0.0924611032711297,0.722616690186611,0.0924611032711297,0.722616690186611,0,0.909691292169593,0.895201652524789,NA
2,2,3,"red_flower","red_flower",1,0.789473684210526,0.573515,34,2,19,1,1,1,"skiboot01a.jpg",3,0,0,1,0,0.0924611032711297,0.0924611032711297,0.722616690186611,0.0924611032711297,0.722616690186611,0,0.909691292169593,0.895201652524789,NA
2,2,3,"red_flower","red_flower",1,0.8,0.5883,35,2,20,1,1,1,"rockingchair.jpg",3,0,0,1,0,0.0924611032711297,0.0924611032711297,0.722616690186611,0.0924611032711297,0.722616690186611,0,0.909691292169593,0.895201652524789,NA
2,2,4,"red_flower","red_flower",1,0.80952380952381,1.24097,36,2,21,1,1,1,"trophy01.jpg",3,0,0,1,0,0.0924611032711297,0.0924611032711297,0.722616690186611,0.0924611032711297,0.722616690186611,0,0.909691292169593,0.895201652524789,NA
2,2,3,"red_flower","red_flower",1,0.818181818181818,0.988135,37,2,22,1,1,1,"fridge.jpg",3,0,0,1,0,0.0924611032711297,0.0924611032711297,0.722616690186611,0.0924611032711297,0.722616690186611,0,0.909691292169593,0.895201652524789,NA
2,1,3,"blue_flower","blue_flower",1,0.826086956521739,0.48223,38,2,23,1,1,1,"filingcabinet.jpg",1,1,0,0,0,0.722616690186611,0.0924611032711297,0.0924611032711297,0.0924611032711297,0.722616690186611,0,0.909691292169593,0.895201652524789,NA
2,2,5,"red_flower","red_flower",1,0.833333333333333,1.285795,39,2,24,1,1,1,"crown.jpg",3,0,0,1,0,0.0924611032711297,0.0924611032711297,0.722616690186611,0.0924611032711297,0.722616690186611,0,0.909691292169593,0.895201652524789,NA
2,1,4,"blue_flower","blue_flower",1,0.84,0.433035,40,2,25,1,2,1,"file.jpg",1,1,0,0,0,0.722616690186611,0.0924611032711297,0.0924611032711297,0.0924611032711297,0.722616690186611,0,0.909691292169593,0.895201652524789,NA
2,2,5,"red_flower","red_flower",1,0.846153846153846,0.870485,41,2,26,1,2,1,"blender.jpg",3,0,0,1,0,0.0924611032711297,0.0924611032711297,0.722616690186611,0.0924611032711297,0.722616690186611,0,0.909691292169593,0.895201652524789,NA
2,1,3,"blue_flower","blue_flower",1,0.851851851851852,0.61911,42,2,27,1,2,1,"sandcastle.jpg",1,1,0,0,0,0.722616690186611,0.0924611032711297,0.0924611032711297,0.0924611032711297,0.722616690186611,0,0.909691292169593,0.895201652524789,NA
2,2,3,"red_flower","red_flower",1,0.857142857142857,0.616875,43,2,28,1,2,1,"crab01.jpg",3,0,0,1,0,0.0924611032711297,0.0924611032711297,0.722616690186611,0.0924611032711297,0.722616690186611,0,0.909691292169593,0.895201652524789,NA
2,1,4,"blue_flower","blue_flower",1,0.862068965517241,0.998295,44,2,29,1,2,1,"butterfly1.jpg",1,1,0,0,0,0.722616690186611,0.0924611032711297,0.0924611032711297,0.0924611032711297,0.722616690186611,0,0.909691292169593,0.895201652524789,NA
2,2,4,"red_flower","red_flower",1,0.866666666666667,0.878635,45,2,30,1,2,1,"doghouse.jpg",3,0,0,1,0,0.0924611032711297,0.0924611032711297,0.722616690186611,0.0924611032711297,0.722616690186611,0,0.909691292169593,0.895201652524789,NA
2,1,3,"blue_flower","blue_flower",1,0.870967741935484,1.05154,46,2,31,1,2,1,"chime.jpg",1,1,0,0,0,0.722616690186611,0.0924611032711297,0.0924611032711297,0.0924611032711297,0.722616690186611,0,0.909691292169593,0.895201652524789,NA
2,1,2,"blue_flower","blue_flower",1,0.875,0.874645,47,2,32,1,2,1,"contactlens.jpg",1,1,0,0,0,0.722616690186611,0.0924611032711297,0.0924611032711297,0.0924611032711297,0.722616690186611,0,0.909691292169593,0.895201652524789,NA
2,1,4,"blue_flower","blue_flower",1,0.878787878787879,1.315535,48,2,33,1,2,1,"snowglobe.jpg",1,1,0,0,0,0.722616690186611,0.0924611032711297,0.0924611032711297,0.0924611032711297,0.722616690186611,0,0.909691292169593,0.895201652524789,NA
2,2,5,"red_flower","red_flower",1,0.882352941176471,0.584235,49,2,34,1,2,1,"beerbottle.jpg",3,0,0,1,0,0.0924611032711297,0.0924611032711297,0.722616690186611,0.0924611032711297,0.722616690186611,0,0.909691292169593,0.895201652524789,NA
2,2,4,"red_flower","red_flower",1,0.885714285714286,1.285815,50,2,35,1,2,1,"salmon.jpg",3,0,0,1,0,0.0924611032711297,0.0924611032711297,0.722616690186611,0.0924611032711297,0.722616690186611,0,0.909691292169593,0.895201652524789,NA
2,1,5,"blue_flower","blue_flower",1,0.888888888888889,1.362765,51,2,36,1,2,1,"microwave.jpg",1,1,0,0,0,0.722616690186611,0.0924611032711297,0.0924611032711297,0.0924611032711297,0.722616690186611,0,0.909691292169593,0.895201652524789,NA
2,1,5,"blue_flower","green_flower",0,0.864864864864865,0.62419,52,3,1,0,0,1,"whiteout.jpg",1,0,0,0,0,0.722616690186611,0.0924611032711297,0.0924611032711297,0.0924611032711297,0.722616690186611,-1,0.909691292169593,0.895201652524789,NA
2,1,3,"red_flower","green_flower",0,0.842105263157895,1.803355,53,3,2,0,0,1,"dromedary.jpg",3,0,0,0,0,0.25,0.25,0.25,0.25,0.25,0,1,1.38629436111989,NA
2,2,4,"red_flower","yellow_flower",0,0.82051282051282,1.698595,54,3,3,0,0,1,"cruiseship.jpg",3,0,0,0,0,0.0924611032711297,0.0924611032711297,0.722616690186611,0.0924611032711297,0.722616690186611,-1,0.909691292169593,0.895201652524789,NA
2,1,5,"red_flower","green_flower",0,0.8,1.9447,55,3,4,0,0,1,"rollerblade.jpg",3,0,0,0,0,0.25,0.25,0.25,0.25,0.25,0,1,1.38629436111989,NA
2,2,5,"red_flower","yellow_flower",0,0.780487804878049,0.658165,56,3,5,0,0,1,"windshieldwiper02.jpg",3,0,0,0,0,0.25,0.25,0.25,0.25,0.25,0,1,1.38629436111989,NA
2,1,3,"blue_flower","green_flower",0,0.761904761904762,0.46175,57,3,6,0,0,1,"candycane01a.jpg",1,0,0,0,0,0.25,0.25,0.25,0.25,0.25,0,1,1.38629436111989,NA
2,1,4,"red_flower","green_flower",0,0.744186046511628,0.790395,58,3,7,0,0,1,"canoepaddle02.jpg",3,0,0,0,0,0.25,0.25,0.25,0.25,0.25,0,1,1.38629436111989,NA
2,2,2,"red_flower","yellow_flower",0,0.727272727272727,1.33789,59,3,8,0,0,1,"hotdog.jpg",3,0,0,0,0,0.25,0.25,0.25,0.25,0.25,0,1,1.38629436111989,NA
2,1,3,"green_flower","green_flower",1,0.733333333333333,1.0858,60,3,9,0,0,1,"cactus.jpg",2,0,1,0,0,0.25,0.25,0.25,0.25,0.25,1,1,1.38629436111989,NA
2,2,4,"green_flower","yellow_flower",0,0.717391304347826,1.10519,61,3,10,0,0,1,"bookshelf.jpg",2,0,0,0,0,0.25,0.25,0.25,0.25,0.25,0,1,1.38629436111989,NA
2,1,2,"green_flower","green_flower",1,0.723404255319149,0.651745,62,3,11,0,0,1,"bathtub.jpg",2,0,1,0,0,0.0924611032711297,0.722616690186611,0.0924611032711297,0.0924611032711297,0.722616690186611,0,0.909691292169593,0.895201652524789,NA
2,2,3,"yellow_flower","yellow_flower",1,0.729166666666667,0.67933,63,3,12,0,0,1,"spicerack.jpg",4,0,0,0,1,0.25,0.25,0.25,0.25,0.25,1,1,1.38629436111989,NA
2,2,3,"yellow_flower","yellow_flower",1,0.73469387755102,0.601925,64,3,13,0,1,1,"stepladder.jpg",4,0,0,0,1,0.0924611032711297,0.0924611032711297,0.0924611032711297,0.722616690186611,0.722616690186611,0,0.909691292169593,0.895201652524789,NA
2,2,4,"yellow_flower","yellow_flower",1,0.74,0.51113,65,3,14,0,1,1,"snowshovel.jpg",4,0,0,0,1,0.0924611032711297,0.0924611032711297,0.0924611032711297,0.722616690186611,0.722616690186611,0,0.909691292169593,0.895201652524789,NA
2,1,3,"green_flower","green_flower",1,0.745098039215686,1.296935,66,3,15,0,1,1,"seaturtle.jpg",2,0,1,0,0,0.0924611032711297,0.722616690186611,0.0924611032711297,0.0924611032711297,0.722616690186611,0,0.909691292169593,0.895201652524789,NA
2,1,3,"green_flower","green_flower",1,0.75,0.50778,67,3,16,0,1,1,"winniethepooh.jpg",2,0,1,0,0,0.0924611032711297,0.722616690186611,0.0924611032711297,0.0924611032711297,0.722616690186611,0,0.909691292169593,0.895201652524789,NA
2,1,3,"green_flower","green_flower",1,0.754716981132076,0.71595,68,3,17,0,1,1,"witchhat.jpg",2,0,1,0,0,0.0924611032711297,0.722616690186611,0.0924611032711297,0.0924611032711297,0.722616690186611,0,0.909691292169593,0.895201652524789,NA
2,2,3,"yellow_flower","yellow_flower",1,0.759259259259259,1.492595,69,3,18,0,1,1,"granolabar01.jpg",4,0,0,0,1,0.0924611032711297,0.0924611032711297,0.0924611032711297,0.722616690186611,0.722616690186611,0,0.909691292169593,0.895201652524789,NA
2,1,5,"green_flower","green_flower",1,0.763636363636364,0.829085,70,3,19,1,1,1,"shovel01.jpg",2,0,1,0,0,0.0924611032711297,0.722616690186611,0.0924611032711297,0.0924611032711297,0.722616690186611,0,0.909691292169593,0.895201652524789,NA
2,1,2,"green_flower","green_flower",1,0.767857142857143,0.564905,71,3,20,1,1,1,"fluorescentlightbulb.jpg",2,0,1,0,0,0.0924611032711297,0.722616690186611,0.0924611032711297,0.0924611032711297,0.722616690186611,0,0.909691292169593,0.895201652524789,NA
2,2,4,"green_flower","yellow_flower",0,0.754385964912281,1.48681,72,3,21,1,1,1,"urinal.jpg",2,0,0,0,1,0.0924611032711297,0.0924611032711297,0.0924611032711297,0.722616690186611,0.0924611032711297,0,0.909691292169593,0.895201652524789,NA
2,2,2,"yellow_flower","yellow_flower",1,0.758620689655172,0.927935,73,3,22,1,1,1,"frisbee.jpg",4,0,0,0,1,0.0924611032711297,0.0924611032711297,0.0924611032711297,0.722616690186611,0.722616690186611,0,0.909691292169593,0.895201652524789,NA
2,2,3,"green_flower","yellow_flower",0,0.745762711864407,1.820445,74,3,23,1,1,1,"porcupine.jpg",2,0,0,0,1,0.0924611032711297,0.0924611032711297,0.0924611032711297,0.722616690186611,0.0924611032711297,0,0.909691292169593,0.895201652524789,NA
2,1,3,"green_flower","green_flower",1,0.75,0.623595,75,3,24,1,1,1,"showerhead01.jpg",2,0,1,0,0,0.0924611032711297,0.722616690186611,0.0924611032711297,0.0924611032711297,0.722616690186611,0,0.909691292169593,0.895201652524789,NA
2,1,2,"green_flower","green_flower",1,0.754098360655738,0.67093,76,3,25,1,2,1,"handheldtelescope.jpg",2,0,1,0,0,0.0924611032711297,0.722616690186611,0.0924611032711297,0.0924611032711297,0.722616690186611,0,0.909691292169593,0.895201652524789,NA
2,2,5,"yellow_flower","yellow_flower",1,0.758064516129032,0.885565,77,3,26,1,2,1,"acorn.jpg",4,0,0,0,1,0.0924611032711297,0.0924611032711297,0.0924611032711297,0.722616690186611,0.722616690186611,0,0.909691292169593,0.895201652524789,NA
2,1,4,"yellow_flower","green_flower",0,0.746031746031746,2.05171,78,3,27,1,2,1,"polarbear.jpg",4,0,1,0,0,0.0924611032711297,0.722616690186611,0.0924611032711297,0.0924611032711297,0.0924611032711297,0,0.909691292169593,0.895201652524789,NA
2,1,4,"green_flower","green_flower",1,0.75,1.99623,79,3,28,1,2,1,"pirateflag.jpg",2,0,1,0,0,0.0924611032711297,0.722616690186611,0.0924611032711297,0.0924611032711297,0.722616690186611,0,0.909691292169593,0.895201652524789,NA
2,2,2,"yellow_flower","yellow_flower",1,0.753846153846154,0.533265,80,3,29,1,2,1,"seagull.jpg",4,0,0,0,1,0.0924611032711297,0.0924611032711297,0.0924611032711297,0.722616690186611,0.722616690186611,0,0.909691292169593,0.895201652524789,NA
2,1,2,"yellow_flower","green_flower",0,0.742424242424242,1.01428,81,3,30,1,2,1,"toyanimal05.jpg",4,0,1,0,0,0.0924611032711297,0.722616690186611,0.0924611032711297,0.0924611032711297,0.0924611032711297,0,0.909691292169593,0.895201652524789,NA
2,2,4,"yellow_flower","yellow_flower",1,0.746268656716418,1.375635,82,3,31,1,2,1,"greywolf.jpg",4,0,0,0,1,0.0924611032711297,0.0924611032711297,0.0924611032711297,0.722616690186611,0.722616690186611,0,0.909691292169593,0.895201652524789,NA
2,2,5,"green_flower","yellow_flower",0,0.735294117647059,1.979045,83,3,32,1,2,1,"butterfly3.jpg",2,0,0,0,1,0.0924611032711297,0.0924611032711297,0.0924611032711297,0.722616690186611,0.0924611032711297,0,0.909691292169593,0.895201652524789,NA
2,2,4,"yellow_flower","yellow_flower",1,0.739130434782609,0.90394,84,3,33,1,2,1,"surfboard.jpg",4,0,0,0,1,0.0924611032711297,0.0924611032711297,0.0924611032711297,0.722616690186611,0.722616690186611,0,0.909691292169593,0.895201652524789,NA
2,1,2,"green_flower","green_flower",1,0.742857142857143,0.53573,85,3,34,1,2,1,"donut.jpg",2,0,1,0,0,0.0924611032711297,0.722616690186611,0.0924611032711297,0.0924611032711297,0.722616690186611,0,0.909691292169593,0.895201652524789,NA
2,2,5,"yellow_flower","yellow_flower",1,0.746478873239437,1.4628,86,3,35,1,2,1,"apron.jpg",4,0,0,0,1,0.0924611032711297,0.0924611032711297,0.0924611032711297,0.722616690186611,0.722616690186611,0,0.909691292169593,0.895201652524789,NA
2,2,4,"yellow_flower","yellow_flower",1,0.75,1.26608,87,3,36,1,2,1,"footballhelmet.jpg",4,0,0,0,1,0.0924611032711297,0.0924611032711297,0.0924611032711297,0.722616690186611,0.722616690186611,0,0.909691292169593,0.895201652524789,NA
2,1,2,"green_flower","yellow_flower",0,0.73972602739726,1.30201,88,4,1,0,0,1,"christmaslights.jpg",2,0,0,0,0,0.0924611032711297,0.722616690186611,0.0924611032711297,0.0924611032711297,0.722616690186611,-1,0.909691292169593,0.895201652524789,NA
2,2,5,"yellow_flower","blue_flower",0,0.72972972972973,0.98994,89,4,2,0,0,1,"zebra.jpg",4,0,0,0,0,0.0924611032711297,0.0924611032711297,0.0924611032711297,0.722616690186611,0.722616690186611,-1,0.909691292169593,0.895201652524789,NA
2,2,2,"yellow_flower","blue_flower",0,0.72,1.300615,90,4,3,0,0,1,"giraffe.jpg",4,0,0,0,0,0.25,0.25,0.25,0.25,0.25,0,1,1.38629436111989,NA
2,1,5,"red_flower","yellow_flower",0,0.710526315789474,1.59118,91,4,4,0,0,1,"mirror02.jpg",3,0,0,0,0,0.25,0.25,0.25,0.25,0.25,0,1,1.38629436111989,NA
2,1,2,"yellow_flower","yellow_flower",1,0.714285714285714,0.47343,92,4,5,0,0,1,"recyclingbin.jpg",4,0,0,0,1,0.25,0.25,0.25,0.25,0.25,1,1,1.38629436111989,NA
2,1,2,"yellow_flower","yellow_flower",1,0.717948717948718,0.7477,93,4,6,0,0,1,"fishingrod.jpg",4,0,0,0,1,0.0924611032711297,0.0924611032711297,0.0924611032711297,0.722616690186611,0.722616690186611,0,0.909691292169593,0.895201652524789,NA
2,1,1,NA,"yellow_flower",0,0.708860759493671,NA,94,4,7,0,0,1,"barn.jpg",NA,0,0,0,1,0.0924611032711297,0.0924611032711297,0.0924611032711297,0.722616690186611,NA,NA,0.909691292169593,0.895201652524789,NA
2,2,3,"blue_flower","blue_flower",1,0.7125,0.68313,95,4,8,0,0,1,"lightswitch01.jpg",1,1,0,0,0,0.25,0.25,0.25,0.25,0.25,1,1,1.38629436111989,NA
2,2,2,"blue_flower","blue_flower",1,0.716049382716049,0.594555,96,4,9,0,0,1,"birdfeeder.jpg",1,1,0,0,0,0.722616690186611,0.0924611032711297,0.0924611032711297,0.0924611032711297,0.722616690186611,0,0.909691292169593,0.895201652524789,NA
2,1,4,"blue_flower","yellow_flower",0,0.707317073170732,1.141275,97,4,10,0,0,1,"cannon.jpg",1,0,0,0,1,0.0924611032711297,0.0924611032711297,0.0924611032711297,0.722616690186611,0.0924611032711297,0,0.909691292169593,0.895201652524789,NA
2,2,3,"blue_flower","blue_flower",1,0.710843373493976,1.21427,98,4,11,0,0,1,"coffeemachine.jpg",1,1,0,0,0,0.722616690186611,0.0924611032711297,0.0924611032711297,0.0924611032711297,0.722616690186611,0,0.909691292169593,0.895201652524789,NA
2,1,4,"yellow_flower","yellow_flower",1,0.714285714285714,0.54188,99,4,12,0,0,1,"treestump.jpg",4,0,0,0,1,0.0924611032711297,0.0924611032711297,0.0924611032711297,0.722616690186611,0.722616690186611,0,0.909691292169593,0.895201652524789,NA
2,2,4,"yellow_flower","blue_flower",0,0.705882352941177,1.410895,100,4,13,0,1,1,"panda.jpg",4,1,0,0,0,0.722616690186611,0.0924611032711297,0.0924611032711297,0.0924611032711297,0.0924611032711297,0,0.909691292169593,0.895201652524789,NA
2,2,5,"blue_flower","blue_flower",1,0.709302325581395,0.999305,101,4,14,0,1,1,"butterfly2.jpg",1,1,0,0,0,0.722616690186611,0.0924611032711297,0.0924611032711297,0.0924611032711297,0.722616690186611,0,0.909691292169593,0.895201652524789,NA
2,2,5,"green_flower","blue_flower",0,0.701149425287356,1.430965,102,4,15,0,1,1,"cymbal.jpg",2,1,0,0,0,0.722616690186611,0.0924611032711297,0.0924611032711297,0.0924611032711297,0.0924611032711297,0,0.909691292169593,0.895201652524789,NA
2,1,5,"red_flower","yellow_flower",0,0.693181818181818,0.963465,103,4,16,0,1,1,"baseballglove.jpg",3,0,0,0,1,0.0924611032711297,0.0924611032711297,0.0924611032711297,0.722616690186611,0.0924611032711297,0,0.909691292169593,0.895201652524789,NA
2,2,2,"green_flower","blue_flower",0,0.685393258426966,0.48198,104,4,17,0,1,1,"weddingcake.jpg",2,1,0,0,0,0.722616690186611,0.0924611032711297,0.0924611032711297,0.0924611032711297,0.0924611032711297,0,0.909691292169593,0.895201652524789,NA
2,2,4,"yellow_flower","blue_flower",0,0.677777777777778,2.080305,105,4,18,0,1,1,"key07.jpg",4,1,0,0,0,0.722616690186611,0.0924611032711297,0.0924611032711297,0.0924611032711297,0.0924611032711297,0,0.909691292169593,0.895201652524789,NA
2,1,4,"yellow_flower","yellow_flower",1,0.681318681318681,1.288975,106,4,19,1,1,1,"tricycle.jpg",4,0,0,0,1,0.0924611032711297,0.0924611032711297,0.0924611032711297,0.722616690186611,0.722616690186611,0,0.909691292169593,0.895201652524789,NA
2,2,3,"blue_flower","blue_flower",1,0.684782608695652,0.65366,107,4,20,1,1,1,"escalator.jpg",1,1,0,0,0,0.722616690186611,0.0924611032711297,0.0924611032711297,0.0924611032711297,0.722616690186611,0,0.909691292169593,0.895201652524789,NA
2,2,5,"red_flower","blue_flower",0,0.67741935483871,0.8949,108,4,21,1,1,1,"volleyball.jpg",3,1,0,0,0,0.722616690186611,0.0924611032711297,0.0924611032711297,0.0924611032711297,0.0924611032711297,0,0.909691292169593,0.895201652524789,NA
2,2,4,"yellow_flower","blue_flower",0,0.670212765957447,0.937155,109,4,22,1,1,1,"football.jpg",4,1,0,0,0,0.722616690186611,0.0924611032711297,0.0924611032711297,0.0924611032711297,0.0924611032711297,0,0.909691292169593,0.895201652524789,NA
2,1,2,"blue_flower","yellow_flower",0,0.663157894736842,0.7985,110,4,23,1,1,1,"windturbine.jpg",1,0,0,0,1,0.0924611032711297,0.0924611032711297,0.0924611032711297,0.722616690186611,0.0924611032711297,0,0.909691292169593,0.895201652524789,NA
2,1,5,"yellow_flower","yellow_flower",1,0.666666666666667,0.41246,111,4,24,1,1,1,"locomotive.jpg",4,0,0,0,1,0.0924611032711297,0.0924611032711297,0.0924611032711297,0.722616690186611,0.722616690186611,0,0.909691292169593,0.895201652524789,NA
2,1,3,"yellow_flower","yellow_flower",1,0.670103092783505,1.045065,112,4,25,1,2,1,"bowlingpin.jpg",4,0,0,0,1,0.0924611032711297,0.0924611032711297,0.0924611032711297,0.722616690186611,0.722616690186611,0,0.909691292169593,0.895201652524789,NA
2,1,3,"blue_flower","yellow_flower",0,0.663265306122449,0.58089,113,4,26,1,2,1,"musicstand.jpg",1,0,0,0,1,0.0924611032711297,0.0924611032711297,0.0924611032711297,0.722616690186611,0.0924611032711297,0,0.909691292169593,0.895201652524789,NA
2,1,5,"green_flower","yellow_flower",0,0.656565656565657,0.58993,114,4,27,1,2,1,"car.jpg",2,0,0,0,1,0.0924611032711297,0.0924611032711297,0.0924611032711297,0.722616690186611,0.0924611032711297,0,0.909691292169593,0.895201652524789,NA
2,1,3,"yellow_flower","yellow_flower",1,0.66,1.3527,115,4,28,1,2,1,"dreamcatcher.jpg",4,0,0,0,1,0.0924611032711297,0.0924611032711297,0.0924611032711297,0.722616690186611,0.722616690186611,0,0.909691292169593,0.895201652524789,NA
2,2,5,"blue_flower","blue_flower",1,0.663366336633663,0.80972,116,4,29,1,2,1,"table01.jpg",1,1,0,0,0,0.722616690186611,0.0924611032711297,0.0924611032711297,0.0924611032711297,0.722616690186611,0,0.909691292169593,0.895201652524789,NA
2,1,3,"yellow_flower","yellow_flower",1,0.666666666666667,2.22833,117,4,30,1,2,1,"jaguar.jpg",4,0,0,0,1,0.0924611032711297,0.0924611032711297,0.0924611032711297,0.722616690186611,0.722616690186611,0,0.909691292169593,0.895201652524789,NA
2,1,3,"yellow_flower","yellow_flower",1,0.669902912621359,0.5662,118,4,31,1,2,1,"butterfly3.jpg",4,0,0,0,1,0.0924611032711297,0.0924611032711297,0.0924611032711297,0.722616690186611,0.722616690186611,0,0.909691292169593,0.895201652524789,NA
2,2,4,"blue_flower","blue_flower",1,0.673076923076923,0.5278,119,4,32,1,2,1,"skihelmet01.jpg",1,1,0,0,0,0.722616690186611,0.0924611032711297,0.0924611032711297,0.0924611032711297,0.722616690186611,0,0.909691292169593,0.895201652524789,NA
2,1,3,"blue_flower","yellow_flower",0,0.666666666666667,0.91649,120,4,33,1,2,1,"bleachers.jpg",1,0,0,0,1,0.0924611032711297,0.0924611032711297,0.0924611032711297,0.722616690186611,0.0924611032711297,0,0.909691292169593,0.895201652524789,NA
2,2,4,"blue_flower","blue_flower",1,0.669811320754717,0.64138,121,4,34,1,2,1,"jackrabbit.jpg",1,1,0,0,0,0.722616690186611,0.0924611032711297,0.0924611032711297,0.0924611032711297,0.722616690186611,0,0.909691292169593,0.895201652524789,NA
2,2,3,"blue_flower","blue_flower",1,0.672897196261682,0.40585,122,4,35,1,2,1,"hulahoop.jpg",1,1,0,0,0,0.722616690186611,0.0924611032711297,0.0924611032711297,0.0924611032711297,0.722616690186611,0,0.909691292169593,0.895201652524789,NA
2,2,2,"blue_flower","blue_flower",1,0.675925925925926,0.656225,123,4,36,1,2,1,"dogsled.jpg",1,1,0,0,0,0.722616690186611,0.0924611032711297,0.0924611032711297,0.0924611032711297,0.722616690186611,0,0.909691292169593,0.895201652524789,NA
2,1,2,"blue_flower","red_flower",0,0.669724770642202,0.967735,124,5,1,0,0,1,"trombone.jpg",1,0,0,0,1,0.0924611032711297,0.0924611032711297,0.0924611032711297,0.722616690186611,0.0924611032711297,0,0.909691292169593,0.895201652524789,NA
2,1,4,"blue_flower","red_flower",0,0.663636363636364,0.64404,125,5,2,0,0,1,"trafficlight.jpg",1,0,0,0,1,0.0924611032711297,0.0924611032711297,0.0924611032711297,0.722616690186611,0.0924611032711297,0,0.909691292169593,0.895201652524789,NA
2,1,2,"red_flower","red_flower",1,0.666666666666667,0.40177,126,5,3,0,0,1,"aquarium.jpg",3,0,0,1,1,0.0924611032711297,0.0924611032711297,0.0924611032711297,0.722616690186611,0.0924611032711297,1,0.909691292169593,0.895201652524789,NA
2,1,4,"red_flower","red_flower",1,0.669642857142857,0.414385,127,5,4,0,0,1,"dolphin01.jpg",3,0,0,1,1,0.0567191892683575,0.0567191892683575,0.443280810731642,0.443280810731642,0.443280810731642,0,0.952553353292228,1.04679143933077,NA
2,1,2,"red_flower","red_flower",1,0.672566371681416,0.867525,128,5,5,0,0,1,"battleaxe.jpg",3,0,0,1,1,0.0567191892683575,0.0567191892683575,0.443280810731642,0.443280810731642,0.443280810731642,0,0.952553353292228,1.04679143933077,NA
2,1,4,"red_flower","red_flower",1,0.675438596491228,0.735255,129,5,6,0,0,1,"cookingpot.jpg",3,0,0,1,1,0.0567191892683575,0.0567191892683575,0.443280810731642,0.443280810731642,0.443280810731642,0,0.952553353292228,1.04679143933077,NA
2,1,2,"red_flower","red_flower",1,0.678260869565217,0.729045,130,5,7,0,0,1,"star.jpg",3,0,0,1,1,0.0567191892683575,0.0567191892683575,0.443280810731642,0.443280810731642,0.443280810731642,0,0.952553353292228,1.04679143933077,NA
2,2,4,"red_flower","green_flower",0,0.672413793103448,0.49439,131,5,8,0,0,1,"bacon.jpg",3,1,0,0,0,0.722616690186611,0.0924611032711297,0.0924611032711297,0.0924611032711297,0.0924611032711297,0,0.909691292169593,0.895201652524789,NA
2,2,3,"green_flower","green_flower",1,0.675213675213675,0.49395,132,5,9,0,0,1,"golfball.jpg",2,1,1,0,0,0.722616690186611,0.0924611032711297,0.0924611032711297,0.0924611032711297,0.0924611032711297,1,0.909691292169593,0.895201652524789,NA
2,2,5,"green_flower","green_flower",1,0.677966101694915,0.80376,133,5,10,0,0,1,"cuttlefish.jpg",2,1,1,0,0,0.443280810731642,0.443280810731642,0.0567191892683575,0.0567191892683575,0.443280810731642,0,0.952553353292228,1.04679143933077,NA
2,2,2,"green_flower","green_flower",1,0.680672268907563,1.12459,134,5,11,0,0,1,"tent.jpg",2,1,1,0,0,0.443280810731642,0.443280810731642,0.0567191892683575,0.0567191892683575,0.443280810731642,0,0.952553353292228,1.04679143933077,NA
2,1,2,"red_flower","red_flower",1,0.683333333333333,0.84781,135,5,12,0,0,1,"chipmunk.jpg",3,0,0,1,1,0.0567191892683575,0.0567191892683575,0.443280810731642,0.443280810731642,0.443280810731642,0,0.952553353292228,1.04679143933077,NA
2,2,5,"red_flower","green_flower",0,0.677685950413223,1.465835,136,5,13,0,1,1,"artichoke01b.jpg",3,1,1,0,0,0.443280810731642,0.443280810731642,0.0567191892683575,0.0567191892683575,0.0567191892683575,0,0.952553353292228,1.04679143933077,NA
2,2,3,"green_flower","green_flower",1,0.680327868852459,0.783045,137,5,14,0,1,1,"ipad02.jpg",2,1,1,0,0,0.443280810731642,0.443280810731642,0.0567191892683575,0.0567191892683575,0.443280810731642,0,0.952553353292228,1.04679143933077,NA
2,2,2,"red_flower","green_flower",0,0.67479674796748,1.029815,138,5,15,0,1,1,"cloud.jpg",3,1,1,0,0,0.443280810731642,0.443280810731642,0.0567191892683575,0.0567191892683575,0.0567191892683575,0,0.952553353292228,1.04679143933077,NA
2,1,5,"red_flower","red_flower",1,0.67741935483871,0.53785,139,5,16,0,1,1,"butterfly4.jpg",3,0,0,1,1,0.0567191892683575,0.0567191892683575,0.443280810731642,0.443280810731642,0.443280810731642,0,0.952553353292228,1.04679143933077,NA
2,2,4,"green_flower","green_flower",1,0.68,0.57826,140,5,17,0,1,1,"lionstatue.jpg",2,1,1,0,0,0.443280810731642,0.443280810731642,0.0567191892683575,0.0567191892683575,0.443280810731642,0,0.952553353292228,1.04679143933077,NA
2,1,5,"red_flower","red_flower",1,0.682539682539683,0.570575,141,5,18,0,1,1,"ironingboard01.jpg",3,0,0,1,1,0.0567191892683575,0.0567191892683575,0.443280810731642,0.443280810731642,0.443280810731642,0,0.952553353292228,1.04679143933077,NA
2,2,3,"red_flower","green_flower",0,0.677165354330709,0.92147,142,5,19,1,1,1,"cork02.jpg",3,1,1,0,0,0.443280810731642,0.443280810731642,0.0567191892683575,0.0567191892683575,0.0567191892683575,0,0.952553353292228,1.04679143933077,NA
2,1,4,"red_flower","red_flower",1,0.6796875,0.63404,143,5,20,1,1,1,"hockeystick.jpg",3,0,0,1,1,0.0567191892683575,0.0567191892683575,0.443280810731642,0.443280810731642,0.443280810731642,0,0.952553353292228,1.04679143933077,NA
2,2,3,"red_flower","green_flower",0,0.674418604651163,1.846125,144,5,21,1,1,1,"asianelephant.jpg",3,1,1,0,0,0.443280810731642,0.443280810731642,0.0567191892683575,0.0567191892683575,0.0567191892683575,0,0.952553353292228,1.04679143933077,NA
2,1,5,"red_flower","red_flower",1,0.676923076923077,0.46506,145,5,22,1,1,1,"jeans01.jpg",3,0,0,1,1,0.0567191892683575,0.0567191892683575,0.443280810731642,0.443280810731642,0.443280810731642,0,0.952553353292228,1.04679143933077,NA
2,2,4,"blue_flower","green_flower",0,0.67175572519084,0.496185,146,5,23,1,1,1,"hockeypuck.jpg",1,0,1,0,0,0.443280810731642,0.443280810731642,0.0567191892683575,0.0567191892683575,0.443280810731642,-1,0.952553353292228,1.04679143933077,NA
2,2,2,"green_flower","green_flower",1,0.674242424242424,1.40526,147,5,24,1,1,1,"lantern03.jpg",2,0,1,0,0,0.0924611032711297,0.722616690186611,0.0924611032711297,0.0924611032711297,0.722616690186611,0,0.909691292169593,0.895201652524789,NA
2,2,2,"green_flower","green_flower",1,0.676691729323308,0.915635,148,5,25,1,2,1,"monarchbutterfly.jpg",2,0,1,0,0,0.0924611032711297,0.722616690186611,0.0924611032711297,0.0924611032711297,0.722616690186611,0,0.909691292169593,0.895201652524789,NA
2,2,3,"green_flower","green_flower",1,0.67910447761194,1.775295,149,5,26,1,2,1,"tulip02.jpg",2,0,1,0,0,0.0924611032711297,0.722616690186611,0.0924611032711297,0.0924611032711297,0.722616690186611,0,0.909691292169593,0.895201652524789,NA
2,1,3,"red_flower","red_flower",1,0.681481481481481,0.597195,150,5,27,1,2,1,"jellyfish.jpg",3,0,0,1,1,0.0567191892683575,0.0567191892683575,0.443280810731642,0.443280810731642,0.443280810731642,0,0.952553353292228,1.04679143933077,NA
2,2,5,"green_flower","green_flower",1,0.683823529411765,0.9263,151,5,28,1,2,1,"callbell.jpg",2,0,1,0,0,0.0924611032711297,0.722616690186611,0.0924611032711297,0.0924611032711297,0.722616690186611,0,0.909691292169593,0.895201652524789,NA
2,1,4,"yellow_flower","red_flower",0,0.678832116788321,0.627615,152,5,29,1,2,1,"basketball01.jpg",4,0,0,1,0,0.0567191892683575,0.0567191892683575,0.443280810731642,0.443280810731642,0.443280810731642,-1,0.952553353292228,1.04679143933077,NA
2,2,4,"green_flower","green_flower",1,0.681159420289855,0.88368,153,5,30,1,2,1,"jokercard.jpg",2,0,1,0,0,0.0924611032711297,0.722616690186611,0.0924611032711297,0.0924611032711297,0.722616690186611,0,0.909691292169593,0.895201652524789,NA
2,1,3,"red_flower","red_flower",1,0.683453237410072,0.80648,154,5,31,1,2,1,"soccerball.jpg",3,0,0,1,0,0.0924611032711297,0.0924611032711297,0.722616690186611,0.0924611032711297,0.722616690186611,0,0.909691292169593,0.895201652524789,NA
2,1,4,"green_flower","red_flower",0,0.678571428571429,0.89003,155,5,32,1,2,1,"butterfly2.jpg",2,0,0,1,0,0.0924611032711297,0.0924611032711297,0.722616690186611,0.0924611032711297,0.0924611032711297,0,0.909691292169593,0.895201652524789,NA
2,2,2,"green_flower","green_flower",1,0.680851063829787,0.863775,156,5,33,1,2,1,"eyepatch.jpg",2,0,1,0,0,0.0924611032711297,0.722616690186611,0.0924611032711297,0.0924611032711297,0.722616690186611,0,0.909691292169593,0.895201652524789,NA
2,1,3,"red_flower","red_flower",1,0.683098591549296,1.72846,157,5,34,1,2,1,"cashregister01.jpg",3,0,0,1,0,0.0924611032711297,0.0924611032711297,0.722616690186611,0.0924611032711297,0.722616690186611,0,0.909691292169593,0.895201652524789,NA
2,1,2,"green_flower","red_flower",0,0.678321678321678,0.887335,158,5,35,1,2,1,"balcony02.jpg",2,0,0,1,0,0.0924611032711297,0.0924611032711297,0.722616690186611,0.0924611032711297,0.0924611032711297,0,0.909691292169593,0.895201652524789,NA
2,2,3,"green_flower","green_flower",1,0.680555555555556,1.71096,159,5,36,1,2,1,"fingerprint.jpg",2,0,1,0,0,0.0924611032711297,0.722616690186611,0.0924611032711297,0.0924611032711297,0.722616690186611,0,0.909691292169593,0.895201652524789,NA
3,1,5,"red_flower","blue_flower",0,0,2.06,1,0,1,0,0,1,"toolbox02.jpg",3,0,0,0,0,0.25,0.25,0.25,0.25,0.25,0,1,1.38629436111989,NA
3,2,2,"blue_flower","red_flower",0,0,0.778,2,0,2,0,0,1,"wheat.jpg",1,0,0,0,0,0.25,0.25,0.25,0.25,0.25,0,1,1.38629436111989,NA
3,2,5,"red_flower","red_flower",1,0.333333333333333,1.135,3,0,3,0,0,1,"corn02.jpg",3,0,0,0.777385079357307,0,0.25,0.25,0.25,0.25,0.25,1,1,1.38629436111989,NA
3,2,5,"red_flower","red_flower",1,0.5,0.854,4,0,4,0,0,1,"marble.jpg",3,0,0,0.950442597107248,0,0.0709403024754432,0.0709403024754432,0.78717909257367,0.0709403024754432,0.78717909257367,0.222614920642693,0.886328776583434,0.751477922130447,NA
3,1,4,"green_flower","blue_flower",0,0.4,0.63,5,0,5,0,0,1,"skunk.jpg",2,0,0,0,0,0.25,0.25,0.25,0.25,0.25,0,1,1.38629436111989,NA
3,1,2,"yellow_flower","blue_flower",0,0.333333333333333,0.957,6,0,6,0,1,1,"tire.jpg",4,0,0,0,0,0.25,0.25,0.25,0.25,0.25,0,1,1.38629436111989,NA
3,1,4,"blue_flower","blue_flower",1,0.428571428571429,1.559,7,0,7,0,1,1,"tennisracket.jpg",1,0.777385079357307,0,0,0,0.25,0.25,0.25,0.25,0.25,1,1,1.38629436111989,NA
3,1,4,"blue_flower","blue_flower",1,0.5,0.499,8,0,8,0,1,1,"foosballtable.jpg",1,0.950442597107248,0,0,0,0.78717909257367,0.0709403024754432,0.0709403024754432,0.0709403024754432,0.78717909257367,0.222614920642693,0.886328776583434,0.751477922130447,NA
3,1,2,"blue_flower","blue_flower",1,0.555555555555556,0.595,9,0,9,1,1,1,"birdfeeder.jpg",1,0.988967782687772,0,0,0,0.86339204083807,0.0455359863873099,0.0455359863873099,0.0455359863873099,0.86339204083807,0.0495574028927523,0.856734954774509,0.54883702070387,NA
3,2,5,"red_flower","red_flower",1,0.6,0.752,10,0,10,1,1,1,"shed02.jpg",3,0,0,0.988967782687772,0,0.0455359863873099,0.0455359863873099,0.86339204083807,0.0455359863873099,0.86339204083807,0.0495574028927523,0.856734954774509,0.54883702070387,NA
3,1,2,"blue_flower","blue_flower",1,0.636363636363636,1.646,11,0,11,1,2,1,"firehydrant.jpg",1,0.997544063818525,0,0,0,0.876859343492599,0.0410468855024672,0.0410468855024672,0.0410468855024672,0.876859343492599,0.011032217312228,0.851320590806809,0.508420012522882,NA
3,1,5,"blue_flower","blue_flower",1,0.666666666666667,1.214,12,0,12,1,2,1,"motorcycle.jpg",1,0.999453271961858,0,0,0,0.879697602999021,0.0401007990003262,0.0401007990003262,0.0401007990003262,0.879697602999021,0.00245593618147455,0.850173355811293,0.499692755221141,NA
3,2,3,"red_flower","red_flower",1,0.692307692307692,0.744,13,0,13,1,2,1,"shelf.jpg",3,0,0,0.997544063818525,0,0.0410468855024672,0.0410468855024672,0.876859343492599,0.0410468855024672,0.876859343492599,0.011032217312228,0.851320590806809,0.508420012522882,NA
3,2,4,"red_flower","red_flower",1,0.714285714285714,2.007,14,0,14,1,2,1,"flipflop01b.jpg",3,0,0,0.999453271961858,0,0.0401007990003262,0.0401007990003262,0.879697602999021,0.0401007990003262,0.879697602999021,0.00245593618147455,0.850173355811293,0.499692755221141,NA
3,2,4,"red_flower","red_flower",1,0.733333333333333,0.593,15,0,15,1,2,1,"toucan.jpg",3,0,0,0.999878290181176,0,0.0398927643432985,0.0398927643432985,0.880321706970105,0.0398927643432985,0.880321706970105,0.000546728038142485,0.849920811504501,0.497763565597117,NA
3,1,3,"blue_flower","blue_flower",1,1,1.24,16,2,1,0,0,1,"treestump.jpg",1,0.999878290181176,0,0,0,0.880321706970105,0.0398927643432985,0.0398927643432985,0.0398927643432985,0.880321706970105,0.000546728038142485,0.849920811504501,0.497763565597117,NA
3,1,5,"red_flower","blue_flower",0,0.5,0.906,17,2,2,0,0,1,"spicerack.jpg",3,0.999878290181176,0,0,0,0.880460260566048,0.0398465798113175,0.0398465798113175,0.0398465798113175,0.0398465798113175,0,0.849864732080658,0.497334776824641,NA
3,2,2,"red_flower","red_flower",1,0.666666666666667,0.996,18,2,3,0,0,1,"football.jpg",3,0,0,0.999972905578341,0,0.0398465798113175,0.0398465798113175,0.880460260566048,0.0398465798113175,0.880460260566048,0.000121709818824201,0.849864732080658,0.497334776824641,NA
3,1,4,"blue_flower","blue_flower",1,0.75,0.627,19,2,4,0,0,1,"bowlingpin.jpg",1,0.999972905578341,0,0,0,0.880460260566048,0.0398465798113175,0.0398465798113175,0.0398465798113175,0.880460260566048,0.000121709818824201,0.849864732080658,0.497334776824641,NA
3,1,3,"blue_flower","blue_flower",1,0.8,0.487,20,2,5,0,0,1,"beerbottle.jpg",1,0.999993968377473,0,0,0,0.880491085792432,0.0398363047358562,0.0398363047358562,0.0398363047358562,0.880491085792432,2.70944216589353e-05,0.849852254932715,0.497239355651211,NA
3,1,4,"blue_flower","blue_flower",1,0.833333333333333,0.493,21,2,6,0,0,1,"key07.jpg",1,0.99999865727083,0,0,0,0.880497947012793,0.0398340176624024,0.0398340176624024,0.0398340176624024,0.880497947012793,6.03162252743594e-06,0.849849477678709,0.497218115139905,NA
3,2,5,"red_flower","red_flower",1,0.857142857142857,1.105,22,2,7,0,0,1,"moon.jpg",3,0,0,0.999993968377473,0,0.0398363047358562,0.0398363047358562,0.880491085792432,0.0398363047358562,0.880491085792432,2.70944216589353e-05,0.849852254932715,0.497239355651211,NA
3,2,4,"red_flower","red_flower",1,0.875,0.971,23,2,8,0,0,1,"exitsign.jpg",3,0,0,0.99999865727083,0,0.0398340176624024,0.0398340176624024,0.880497947012793,0.0398340176624024,0.880497947012793,6.03162252743594e-06,0.849849477678709,0.497218115139905,NA
3,1,5,"blue_flower","blue_flower",1,0.888888888888889,0.978,24,2,9,0,0,1,"wheelchair.jpg",1,0.999999701088452,0,0,0,0.880499474376487,0.0398335085411709,0.0398335085411709,0.0398335085411709,0.880499474376487,1.34272917029499e-06,0.84984885943764,0.497213386767714,NA
3,1,2,"blue_flower","blue_flower",1,0.9,0.873,25,2,10,0,0,1,"file.jpg",1,0.99999993345783,0,0,0,0.880499814388139,0.0398333952039537,0.0398333952039537,0.0398333952039537,0.880499814388139,2.98911547735869e-07,0.849848721808801,0.497212334165605,NA
3,2,2,"red_flower","red_flower",1,0.909090909090909,1.23,26,2,11,0,0,1,"pirateflag.jpg",3,0,0,0.999999701088452,0,0.0398335085411709,0.0398335085411709,0.880499474376487,0.0398335085411709,0.880499474376487,1.34272917029499e-06,0.84984885943764,0.497213386767714,NA
3,2,3,"red_flower","red_flower",1,0.916666666666667,1.239,27,2,12,0,0,1,"butterfly1.jpg",3,0,0,0.99999993345783,0,0.0398333952039537,0.0398333952039537,0.880499814388139,0.0398333952039537,0.880499814388139,2.98911547735869e-07,0.849848721808801,0.497212334165605,NA
3,1,3,"blue_flower","blue_flower",1,0.923076923076923,0.655,28,2,13,0,1,1,"seagull.jpg",1,0.99999998518672,0,0,0,0.880499890079692,0.039833369973436,0.039833369973436,0.039833369973436,0.880499890079692,6.65421704404423e-08,0.84984869117061,0.497212099840872,NA
3,1,4,"blue_flower","blue_flower",1,0.928571428571429,1.867,29,2,14,0,1,1,"fluorescentlightbulb.jpg",1,0.999999996702343,0,0,0,0.880499906929756,0.0398333643567482,0.0398333643567482,0.0398333643567482,0.880499906929756,1.48132800470435e-08,0.849848684350094,0.497212047676701,NA
3,1,5,"blue_flower","blue_flower",1,0.933333333333333,1.586,30,2,15,0,1,1,"xylophone.jpg",1,0.999999999265892,0,0,0,0.880499910680831,0.0398333631063897,0.0398333631063897,0.0398333631063897,0.880499910680831,3.29765714734975e-09,0.849848682831746,0.497212036064178,NA
3,2,3,"red_flower","red_flower",1,0.9375,1.417,31,2,16,0,1,1,"basketball01.jpg",3,0,0,0.99999998518672,0,0.039833369973436,0.039833369973436,0.880499890079692,0.039833369973436,0.880499890079692,6.65421704404423e-08,0.84984869117061,0.497212099840872,NA
3,2,5,"blue_flower","red_flower",0,0.882352941176471,0.853,32,2,17,0,1,1,"shelves.jpg",1,0,0,0.99999998518672,0,0.0398333643567482,0.0398333643567482,0.880499906929756,0.0398333643567482,0.0398333643567482,0,0.849848684350094,0.497212047676701,NA
3,2,5,"red_flower","red_flower",1,0.888888888888889,1.146,33,2,18,0,1,1,"cork02.jpg",3,0,0,0.999999996702343,0,0.0398333643567482,0.0398333643567482,0.880499906929756,0.0398333643567482,0.880499906929756,1.48132800470435e-08,0.849848684350094,0.497212047676701,NA
3,2,3,"red_flower","red_flower",1,0.894736842105263,0.489,34,2,19,1,1,1,"cloud.jpg",3,0,0,0.999999999265892,0,0.0398333631063897,0.0398333631063897,0.880499910680831,0.0398333631063897,0.880499910680831,3.29765714734975e-09,0.849848682831746,0.497212036064178,NA
3,2,3,"red_flower","red_flower",1,0.9,0.764,35,2,20,1,1,1,"beaver.jpg",3,0,0,0.999999999836577,0,0.0398333628280413,0.0398333628280413,0.880499911515876,0.0398333628280413,0.880499911515876,7.34107663546979e-10,0.849848682493738,0.497212033479057,NA
3,2,5,"blue_flower","red_flower",0,0.857142857142857,0.703,36,2,21,1,1,1,"urinal.jpg",1,0,0,0.999999999836577,0,0.0398333627660768,0.0398333627660768,0.88049991170177,0.0398333627660768,0.0398333627660768,0,0.849848682418493,0.497212032903571,NA
3,2,3,"red_flower","red_flower",1,0.863636363636364,0.578,37,2,22,1,1,1,"tulip02.jpg",3,0,0,0.99999999996362,0,0.0398333627660768,0.0398333627660768,0.88049991170177,0.0398333627660768,0.88049991170177,1.63423274912589e-10,0.849848682418493,0.497212032903571,NA
3,1,3,"blue_flower","blue_flower",1,0.869565217391304,0.483,38,2,23,1,1,1,"horse.jpg",1,0.999999999836577,0,0,0,0.880499911515876,0.0398333628280413,0.0398333628280413,0.0398333628280413,0.880499911515876,7.34107663546979e-10,0.849848682493738,0.497212033479057,NA
3,2,5,"red_flower","red_flower",1,0.875,0.54,39,2,24,1,1,1,"musicstand.jpg",3,0,0,0.999999999991901,0,0.0398333627522826,0.0398333627522826,0.880499911743152,0.0398333627522826,0.880499911743152,3.63804542047319e-11,0.849848682401742,0.497212032775459,NA
3,1,4,"blue_flower","blue_flower",1,0.88,1,40,2,25,1,2,1,"frisbee.jpg",1,0.99999999996362,0,0,0,0.88049991170177,0.0398333627660768,0.0398333627660768,0.0398333627660768,0.88049991170177,1.63423274912589e-10,0.849848682418493,0.497212032903571,NA
3,2,5,"red_flower","red_flower",1,0.884615384615385,0.804,41,2,26,1,2,1,"footballhelmet.jpg",3,0,0,0.999999999998197,0,0.0398333627492118,0.0398333627492118,0.880499911752365,0.0398333627492118,0.880499911752365,8.09885492003559e-12,0.849848682398013,0.49721203274694,NA
3,1,3,"blue_flower","blue_flower",1,0.888888888888889,1,42,2,27,1,2,1,"soccerball.jpg",1,0.999999999991901,0,0,0,0.880499911743152,0.0398333627522826,0.0398333627522826,0.0398333627522826,0.880499911743152,3.63804542047319e-11,0.849848682401742,0.497212032775459,NA
3,2,3,"red_flower","red_flower",1,0.892857142857143,0.743,43,2,28,1,2,1,"windshieldwiper02.jpg",3,0,0,0.999999999999599,0,0.0398333627485281,0.0398333627485281,0.880499911754416,0.0398333627485281,0.880499911754416,1.80289116968879e-12,0.849848682397183,0.497212032740591,NA
3,1,4,"blue_flower","blue_flower",1,0.896551724137931,1.413,44,2,29,1,2,1,"windturbine.jpg",1,0.999999999998197,0,0,0,0.880499911752365,0.0398333627492118,0.0398333627492118,0.0398333627492118,0.880499911752365,8.09885492003559e-12,0.849848682398013,0.49721203274694,NA
3,2,4,"red_flower","red_flower",1,0.9,1.919,45,2,30,1,2,1,"butterfly2.jpg",3,0,0,0.999999999999911,0,0.039833362748376,0.039833362748376,0.880499911754872,0.039833362748376,0.880499911754872,4.01345623401994e-13,0.849848682396998,0.497212032739177,NA
3,1,3,"blue_flower","blue_flower",1,0.903225806451613,0.892,46,2,31,1,2,1,"blender.jpg",1,0.999999999999599,0,0,0,0.880499911754416,0.0398333627485281,0.0398333627485281,0.0398333627485281,0.880499911754416,1.80289116968879e-12,0.849848682397183,0.497212032740591,NA
3,1,2,"blue_flower","blue_flower",1,0.90625,0.817,47,2,32,1,2,1,"rockingchair.jpg",1,0.999999999999911,0,0,0,0.880499911754872,0.039833362748376,0.039833362748376,0.039833362748376,0.880499911754872,4.01345623401994e-13,0.849848682396998,0.497212032739177,NA
3,1,4,"blue_flower","blue_flower",1,0.909090909090909,0.925,48,2,33,1,2,1,"desktopcomputer.jpg",1,0.99999999999998,0,0,0,0.880499911754974,0.0398333627483421,0.0398333627483421,0.0398333627483421,0.880499911754974,8.93729534823251e-14,0.849848682396957,0.497212032738863,NA
3,2,5,"red_flower","red_flower",1,0.911764705882353,0.761,49,2,34,1,2,1,"tricycle.jpg",3,0,0,0.99999999999998,0,0.0398333627483421,0.0398333627483421,0.880499911754974,0.0398333627483421,0.880499911754974,8.93729534823251e-14,0.849848682396957,0.497212032738863,NA
3,2,4,"red_flower","red_flower",1,0.914285714285714,1.084,50,2,35,1,2,1,"dreamcatcher.jpg",3,0,0,0.999999999999996,0,0.0398333627483346,0.0398333627483346,0.880499911754996,0.0398333627483346,0.880499911754996,1.98729921407903e-14,0.849848682396948,0.497212032738793,NA
3,1,5,"blue_flower","blue_flower",1,0.916666666666667,0.594,51,2,36,1,2,1,"contactlens.jpg",1,0.999999999999996,0,0,0,0.880499911754996,0.0398333627483346,0.0398333627483346,0.0398333627483346,0.880499911754996,1.98729921407903e-14,0.849848682396948,0.497212032738793,NA
3,1,5,"blue_flower","green_flower",0,0.891891891891892,0.973,52,3,1,0,0,1,"sailboat.jpg",1,0.222614920642692,0,0,0,0.880499911755001,0.0398333627483329,0.0398333627483329,0.0398333627483329,0.880499911755001,-0.999999999999996,0.849848682396946,0.497212032738777,NA
3,1,5,"blue_flower","green_flower",0,0.868421052631579,0.454,53,3,2,0,0,1,"asianelephant.jpg",1,0.0495574028927521,0,0,0,0.3990453618543,0.200318212715233,0.200318212715233,0.200318212715233,0.3990453618543,-0.222614920642692,0.990223405538597,1.33283884583192,NA
3,2,4,"red_flower","yellow_flower",0,0.846153846153846,0.672,54,3,3,0,0,1,"triangle.jpg",3,0,0,0.222614920642692,0,0.0398333627483329,0.0398333627483329,0.880499911755001,0.0398333627483329,0.880499911755001,-0.999999999999996,0.849848682396946,0.497212032738777,NA
3,1,3,"blue_flower","green_flower",0,0.825,1.211,55,3,4,0,0,1,"redonion.jpg",1,0.011032217312228,0,0,0,0.279852530161082,0.240049156612973,0.240049156612973,0.240049156612973,0.279852530161082,-0.0495574028927521,0.999604079678535,1.38397684392176,NA
3,2,5,"red_flower","yellow_flower",0,0.804878048780488,0.527,56,3,5,0,0,1,"acorn.jpg",3,0,0,0.0495574028927521,0,0.200318212715233,0.200318212715233,0.3990453618543,0.200318212715233,0.3990453618543,-0.222614920642692,0.990223405538597,1.33283884583192,NA
3,1,3,"blue_flower","green_flower",0,0.785714285714286,0.583,57,3,6,0,0,1,"communitymailbox.jpg",1,0.00245593618147457,0,0,0,0.256458272615001,0.247847242461666,0.247847242461666,0.247847242461666,0.256458272615001,-0.011032217312228,0.999981462883556,1.38618376538369,NA
3,1,3,"blue_flower","green_flower",0,0.767441860465116,0.802,58,3,7,0,0,1,"handheldtelescope.jpg",1,0.000546728038142478,0,0,0,0.251428279892143,0.249523906702619,0.249523906702619,0.249523906702619,0.251428279892143,-0.00245593618147457,0.999999093341511,1.38628892804755,NA
3,2,2,"red_flower","yellow_flower",0,0.75,1.264,59,3,8,0,0,1,"callbell.jpg",3,0,0,0.011032217312228,0,0.240049156612973,0.240049156612973,0.279852530161082,0.240049156612973,0.279852530161082,-0.0495574028927521,0.999604079678535,1.38397684392176,NA
3,1,3,"green_flower","green_flower",1,0.755555555555556,0.488,60,3,9,0,0,1,"candycane01a.jpg",2,0.000546728038142478,0.777385079357307,0,0,0.250317487852258,0.249894170715914,0.249894170715914,0.249894170715914,0.249894170715914,1,0.999999955200652,1.3862940923996,NA
3,2,2,"yellow_flower","yellow_flower",1,0.760869565217391,0.692,61,3,10,0,0,1,"coffeemaker.jpg",4,0,0,0.011032217312228,0.777385079357307,0.247847242461666,0.247847242461666,0.256458272615001,0.247847242461666,0.247847242461666,1,0.999981462883556,1.38618376538369,NA
3,1,3,"yellow_flower","green_flower",0,0.74468085106383,0.904,62,3,11,0,0,1,"electricguitar01.jpg",4,0.000546728038142478,0.777385079357307,0,0,0.0710519358861931,0.787084507169515,0.070931778472146,0.070931778472146,0.070931778472146,0,0.886364252097098,0.751705458483377,NA
3,2,3,"yellow_flower","yellow_flower",1,0.75,0.986,63,3,12,0,0,1,"weddingcake.jpg",4,0,0,0.011032217312228,0.950442597107248,0.0707658858009333,0.0707658858009333,0.073224525931067,0.785243702467066,0.785243702467066,0.222614920642693,0.887052984986706,0.756096468010136,NA
3,2,3,"yellow_flower","yellow_flower",1,0.755102040816326,0.682,64,3,13,0,1,1,"balcony02.jpg",4,0,0,0.011032217312228,0.988967782687772,0.04546405905149,0.04546405905149,0.0470436303208613,0.862028251576159,0.862028251576159,0.0495574028927523,0.857280078045933,0.552823909236129,NA
3,2,4,"yellow_flower","yellow_flower",1,0.76,0.54,65,3,14,0,1,1,"cashregister01.jpg",4,0,0,0.011032217312228,0.997544063818525,0.0409884317319029,0.0409884317319029,0.0424125049556988,0.875610631580496,0.875610631580496,0.011032217312228,0.851824333287575,0.51221966649476,NA
3,1,3,"green_flower","green_flower",1,0.764705882352941,0.491,66,3,15,0,1,1,"doubledoors.jpg",2,0.000546728038142478,0.950442597107248,0,0,0.0710519358861931,0.787084507169515,0.070931778472146,0.070931778472146,0.787084507169515,0.222614920642693,0.886364252097098,0.751705458483377,NA
3,1,3,"green_flower","green_flower",1,0.769230769230769,0.624,67,3,16,0,1,1,"butterfly3.jpg",2,0.000546728038142478,0.988967782687772,0,0,0.0456096054921463,0.863325446238103,0.0455324741348752,0.0455324741348752,0.863325446238103,0.0495574028927523,0.856761604437453,0.549032904068644,NA
3,1,4,"blue_flower","green_flower",0,0.754716981132076,0.838,68,3,17,0,1,1,"waterfountain02.jpg",1,0.000121709818824223,0.988967782687772,0,0,0.0411135595946777,0.876798377216104,0.0410440315946091,0.0410440315946091,0.0411135595946777,-0.000546728038142478,0.851345209853555,0.508606612364273,NA
3,2,3,"yellow_flower","yellow_flower",1,0.759259259259259,1.375,69,3,18,0,1,1,"panda.jpg",4,0,0,0.011032217312228,0.999453271961858,0.0400450069376573,0.0400450069376573,0.0414363024743989,0.878473683650287,0.878473683650287,0.00245593618147455,0.850668013311447,0.503449515664875,NA
3,1,5,"green_flower","green_flower",1,0.763636363636364,1.566,70,3,19,1,1,1,"greywolf.jpg",2,0.000121709818824223,0.997544063818525,0,0,0.0410617191889359,0.876845779683918,0.041046250563573,0.041046250563573,0.876845779683918,0.011032217312228,0.851326068283676,0.508461537113876,NA
3,1,3,"yellow_flower","green_flower",0,0.75,2.1,71,3,20,1,1,1,"forklift.jpg",4,0.000121709818824223,0.997544063818525,0,0,0.0401153050888146,0.879684308924749,0.0401001929932182,0.0401001929932182,0.0401001929932182,0,0.850178734145676,0.499733807008419,NA
3,2,4,"green_flower","yellow_flower",0,0.736842105263158,0.684,72,3,21,1,1,1,"barrel01.jpg",2,0,0,0.011032217312228,0.999453271961858,0.0398375492559373,0.0398375492559373,0.0412216370289973,0.879103264459128,0.0398375492559373,0,0.850413454420629,0.501510727940546,NA
3,2,2,"yellow_flower","yellow_flower",1,0.741379310344828,0.567,73,3,22,1,1,1,"fingerprint.jpg",4,0,0,0.011032217312228,0.999878290181176,0.0398375492559373,0.0398375492559373,0.0412216370289973,0.879103264459128,0.879103264459128,0.000546728038142485,0.850413454420629,0.501510727940546,NA
3,2,4,"yellow_flower","yellow_flower",1,0.745762711864407,1.852,74,3,23,1,1,1,"bacon.jpg",4,0,0,0.011032217312228,0.999972905578341,0.0397914924085721,0.0397914924085721,0.0411739800149427,0.879243035167913,0.879243035167913,0.000121709818824201,0.850356926926138,0.501079800155551,NA
3,1,3,"green_flower","green_flower",1,0.75,1.563,75,3,24,1,1,1,"witchhat.jpg",2,0.000121709818824223,0.999453271961858,0,0,0.0401153050888146,0.879684308924749,0.0401001929932182,0.0401001929932182,0.879684308924749,0.00245593618147455,0.850178734145676,0.499733807008419,NA
3,1,5,"yellow_flower","green_flower",0,0.737704918032787,0.865,76,3,25,1,2,1,"hotdog.jpg",4,0.000121709818824223,0.999453271961858,0,0,0.0399071983058596,0.880308472479114,0.0398921646075131,0.0398921646075131,0.0398921646075131,0,0.849926167856965,0.497804511616399,NA
3,2,5,"yellow_flower","yellow_flower",1,0.741935483870968,1.447,77,3,26,1,2,1,"jeans01.jpg",4,0,0,0.011032217312228,0.999993968377473,0.0397812457201483,0.0397812457201483,0.0411633773227881,0.879274131236915,0.879274131236915,2.70944216589353e-05,0.850344350051266,0.500983902691689,NA
3,1,3,"green_flower","green_flower",1,0.746031746031746,0.486,78,3,27,1,2,1,"shovel01.jpg",2,0.000121709818824223,0.999878290181176,0,0,0.0399071983058596,0.880308472479114,0.0398921646075131,0.0398921646075131,0.880308472479114,0.000546728038142485,0.849926167856965,0.497804511616399,NA
3,1,1,NA,"green_flower",0,0.734375,NA,79,3,28,1,2,1,"skihelmet01.jpg",NA,0.000121709818824223,0.999878290181176,0,0,0.039860997757206,0.880447039316061,0.0398459814633666,0.0398459814633666,NA,NA,0.849870083544183,0.497375699274109,NA
3,2,2,"yellow_flower","yellow_flower",1,0.738461538461539,1.019,80,3,29,1,2,1,"duck01.jpg",4,0,0,0.011032217312228,0.99999865727083,0.0397789649642177,0.0397789649642177,0.0411610173258786,0.879281052745686,0.879281052745686,6.03162252743594e-06,0.850341550597564,0.500962556145374,NA
3,1,4,"green_flower","green_flower",1,0.742424242424242,0.726,81,3,30,1,2,1,"vacuumcleaner01.jpg",2,0.000121709818824223,0.999972905578341,0,0,0.039860997757206,0.880447039316061,0.0398459814633666,0.0398459814633666,0.880447039316061,0.000121709818824201,0.849870083544183,0.497375699274109,NA
3,2,4,"yellow_flower","yellow_flower",1,0.746268656716418,1.626,82,3,31,1,2,1,"chime.jpg",4,0,0,0.011032217312228,0.999999701088452,0.0397784572492691,0.0397784572492691,0.0411604919712392,0.879282593530223,0.879282593530223,1.34272917029499e-06,0.850340927414562,0.500957804167928,NA
3,2,2,"yellow_flower","yellow_flower",1,0.75,0.807,83,3,32,1,2,1,"chipmunk.jpg",4,0,0,0.011032217312228,0.99999993345783,0.0397783442251069,0.0397783442251069,0.0411603750202451,0.879282936529541,0.879282936529541,2.98911547735869e-07,0.850340788685577,0.500956746310923,NA
3,2,4,"yellow_flower","yellow_flower",1,0.753623188405797,1.054,84,3,33,1,2,1,"butterfly4.jpg",4,0,0,0.011032217312228,0.99999998518672,0.0397783190642797,0.0397783190642797,0.0411603489852478,0.879283012886193,0.879283012886193,6.65421704404423e-08,0.850340757802478,0.500956510816372,NA
3,1,2,"green_flower","green_flower",1,0.757142857142857,0.997,85,3,34,1,2,1,"jellyfish.jpg",2,0.000121709818824223,0.999993968377473,0,0,0.0398507191181572,0.880477867488942,0.0398357066964502,0.0398357066964502,0.880477867488942,2.70944216589353e-05,0.849857605308117,0.497280272852498,NA
3,2,5,"yellow_flower","yellow_flower",1,0.76056338028169,1.581,86,3,35,1,2,1,"apron.jpg",4,0,0,0.011032217312228,0.999999996702343,0.039778313463106,0.039778313463106,0.0411603431894709,0.879283029884317,0.879283029884317,1.48132800470435e-08,0.850340750927441,0.500956458391781,NA
3,2,4,"yellow_flower","yellow_flower",1,0.763888888888889,0.584,87,3,36,1,2,1,"scalpel.jpg",4,0,0,0.011032217312228,0.999999999265892,0.0397783122162013,0.0397783122162013,0.0411603418992446,0.879283033668353,0.879283033668353,3.29765714734975e-09,0.850340749396956,0.500956446721285,NA
3,1,2,"green_flower","yellow_flower",0,0.753424657534247,1.348,88,4,1,0,0,1,"monarchbutterfly.jpg",2,0.000121709818824223,0.222613577913522,0,0,0.039848431251493,0.880484729365181,0.039833419691663,0.039833419691663,0.880484729365181,-0.999993968377473,0.84985482781189,0.497259031172809,NA
3,2,5,"yellow_flower","blue_flower",0,0.743243243243243,0.57,89,4,2,0,0,1,"baseballglove.jpg",4,0,0,0.011032217312228,0.222614920479269,0.0397783119386217,0.0397783119386217,0.0411603416120209,0.879283034510736,0.879283034510736,-0.999999999265892,0.850340749056246,0.500956444123259,NA
3,2,2,"yellow_flower","blue_flower",0,0.733333333333333,2.284,90,4,3,0,0,1,"granolabar01.jpg",4,0,0,0.011032217312228,0.0495574028563719,0.198933690963289,0.198933690963289,0.205845303109483,0.39628731496394,0.39628731496394,-0.222614920479269,0.990568090767704,1.33464489986857,NA
3,1,4,"green_flower","yellow_flower",0,0.723684210526316,0.547,91,4,4,0,0,1,"hockeypuck.jpg",2,0.000121709818824223,0.0495571039812046,0,0,0.200378909773976,0.399014242743886,0.200303423741069,0.200303423741069,0.399014242743886,-0.222613577913522,0.990227446479531,1.33286028062488,NA
3,1,5,"green_flower","yellow_flower",0,0.714285714285714,2.283,92,4,5,0,0,1,"bookshelf.jpg",2,0.000121709818824223,0.0110321507700575,0,0,0.240117961179911,0.279827029235366,0.240027504792362,0.240027504792362,0.279827029235366,-0.0495571039812046,0.999604753719531,1.38398074327536,NA
3,1,2,"yellow_flower","yellow_flower",1,0.717948717948718,0.547,93,4,6,0,0,1,"gps.jpg",4,0.000121709818824223,0.0110321507700575,0,0.777385079357307,0.247917502562622,0.256434281518419,0.247824107959479,0.247824107959479,0.247824107959479,1,0.999981598409765,1.38618457152111,NA
3,1,4,"yellow_flower","yellow_flower",1,0.721518987341772,1.054,94,4,7,0,0,1,"porcupine.jpg",4,0.000121709818824223,0.0110321507700575,0,0.950442597107248,0.0707906676925486,0.073222559199355,0.0707639996830412,0.785222773425055,0.785222773425055,0.222614920642693,0.887060831466096,0.756146898701277,NA
3,2,3,"blue_flower","blue_flower",1,0.725,1.186,95,4,8,0,0,1,"giraffe.jpg",1,0.777385079357307,0,0.011032217312228,0.0495574028563719,0.23806368195726,0.23806368195726,0.246334798970252,0.277537837115228,0.23806368195726,1,0.999647884845951,1.38422431019756,NA
3,2,2,"blue_flower","blue_flower",1,0.728395061728395,0.588,96,4,9,0,0,1,"toyanimal05.jpg",1,0.950442597107248,0,0.011032217312228,0.0495574028563719,0.776136567134706,0.0699451539735036,0.072375279174669,0.0815429997171214,0.776136567134706,0.222614920642693,0.890427617133658,0.777198234607692,NA
3,1,5,"yellow_flower","yellow_flower",1,0.731707317073171,1.796,97,4,10,0,0,1,"hulahoop.jpg",4,0.000121709818824223,0.0110321507700575,0,0.988967782687772,0.0454804137666618,0.0470428150770371,0.0454632805463339,0.862013490609967,0.862013490609967,0.0495574028927523,0.857285984134334,0.552867366162258,NA
3,2,4,"green_flower","blue_flower",0,0.72289156626506,1.875,98,4,11,0,0,1,"treadmill.jpg",2,0.950442597107248,0,0.011032217312228,0.0495574028563719,0.855578429542904,0.0451238902817829,0.0466916429668355,0.0526060372084778,0.0451238902817829,0,0.859845691360669,0.571253177044195,NA
3,1,4,"yellow_flower","yellow_flower",1,0.726190476190476,1.404,99,4,12,0,0,1,"volleyball.jpg",4,0.000121709818824223,0.0110321507700575,0,0.997544063818525,0.0410032455555933,0.0424118414605114,0.0409877989582104,0.875597114025685,0.875597114025685,0.011032217312228,0.851829791221745,0.512261072137715,NA
3,2,3,"blue_flower","blue_flower",1,0.729411764705882,0.487,100,4,13,0,1,1,"whiteout.jpg",1,0.988967782687772,0,0.011032217312228,0.0495574028563719,0.855578429542904,0.0451238902817829,0.0466916429668355,0.0526060372084778,0.855578429542904,0.0495574028927523,0.859845691360669,0.571253177044195,NA
3,2,5,"blue_flower","blue_flower",1,0.732558139534884,0.832,101,4,14,0,1,1,"butterfly2.jpg",1,0.997544063818525,0,0.011032217312228,0.0495574028563719,0.869699775872701,0.0407117371636577,0.0421261971061164,0.0474622898575253,0.869699775872701,0.011032217312228,0.854198938322612,0.529818128307999,NA
3,2,4,"blue_flower","blue_flower",1,0.735632183908046,1.245,102,4,15,0,1,1,"sandcastle.jpg",1,0.999453271961858,0,0.011032217312228,0.0495574028563719,0.872679094576076,0.0397808620190372,0.0411629802906357,0.0463770631142513,0.872679094576076,0.00245593618147455,0.853000554352184,0.520856522485942,NA
3,1,3,"green_flower","yellow_flower",0,0.727272727272727,1.186,103,4,16,0,1,1,"ironingboard01.jpg",2,0.000121709818824223,0.00245592136819458,0,0.997544063818525,0.0400594940280942,0.0414356689741619,0.0400444029574429,0.878460434040301,0.0414356689741619,-0.0110321507700575,0.850673372855055,0.503490451778029,NA
3,2,4,"blue_flower","blue_flower",1,0.730337078651685,1.569,104,4,17,0,1,1,"cookingpot.jpg",1,0.999878290181176,0,0.011032217312228,0.0495574028563719,0.8733343664439,0.0395761251796935,0.0409511302186428,0.0461383781577637,0.8733343664439,0.000546728038142485,0.852736661972219,0.518874842876245,NA
3,2,5,"blue_flower","blue_flower",1,0.733333333333333,0.598,105,4,18,0,1,1,"snowglobe.jpg",1,0.999972905578341,0,0.011032217312228,0.0495574028563719,0.873479846796678,0.0395306704774898,0.0409040962702574,0.0460853864555745,0.873479846796678,0.000121709818824201,0.852678058299711,0.518434353826556,NA
3,1,4,"yellow_flower","yellow_flower",1,0.736263736263736,1.571,106,4,19,1,1,1,"jaguar.jpg",4,0.000121709818824223,0.00245592136819458,0,0.999453271961858,0.0401030318004773,0.0403938745962928,0.0400879243284306,0.879415169274799,0.879415169274799,0.00245593618147455,0.850287595633764,0.500563846111389,NA
3,2,3,"blue_flower","blue_flower",1,0.739130434782609,0.494,107,4,20,1,1,1,"escalator.jpg",1,0.999993968377473,0,0.011032217312228,0.0495574028563719,0.873512213442632,0.0395205576600195,0.0408936321001745,0.0460735967971739,0.873512213442632,2.70944216589353e-05,0.852665019316594,0.518336327249647,NA
3,2,4,"blue_flower","blue_flower",1,0.741935483870968,0.581,108,4,21,1,1,1,"surfboard.jpg",1,0.99999865727083,0,0.011032217312228,0.0495574028563719,0.873519417777243,0.0395183066970679,0.0408913029313503,0.0460709725943393,0.873519417777243,6.03162252743594e-06,0.852662116994674,0.518314506699702,NA
3,2,2,"blue_flower","blue_flower",1,0.74468085106383,0.735,109,4,22,1,1,1,"winniethepooh.jpg",1,0.999999701088452,0,0.011032217312228,0.0495574028563719,0.873521021521864,0.0395178056140503,0.040890784439057,0.0460703884250289,0.873521021521864,1.34272917029499e-06,0.852661470911868,0.518309649200425,NA
3,1,4,"green_flower","yellow_flower",0,0.736842105263158,1.736,110,4,23,1,1,1,"lantern03.jpg",2,0.000121709818824223,0.000546724740485329,0,0.999453271961858,0.0398950520085923,0.0401843864540057,0.0398800228859559,0.880040538651446,0.0401843864540057,-0.00245592136819458,0.850034584765796,0.498632416050391,NA
3,1,5,"yellow_flower","yellow_flower",1,0.739583333333333,0.499,111,4,24,1,1,1,"polarbear.jpg",4,0.000121709818824223,0.000546724740485329,0,0.999878290181176,0.0399045017054457,0.0399570408026914,0.039889469022953,0.88024898846891,0.88024898846891,0.000546728038142485,0.849950241664817,0.497988506742455,NA
3,1,3,"yellow_flower","yellow_flower",1,0.742268041237113,2.04,112,4,25,1,2,1,"microwave.jpg",4,0.000121709818824223,0.000546724740485329,0,0.999972905578341,0.0398583073966741,0.0399107856735317,0.0398432921163377,0.880387614813456,0.880387614813456,0.000121709818824201,0.849894135382902,0.497559588525414,NA
3,1,4,"yellow_flower","yellow_flower",1,0.744897959183674,0.432,113,4,26,1,2,1,"dalmatian.jpg",4,0.000121709818824223,0.000546724740485329,0,0.999993968377473,0.0398480301448834,0.0399004948904975,0.0398330187361569,0.880418456228462,0.880418456228462,2.70944216589353e-05,0.849881652257203,0.497464138529145,NA
3,1,2,"yellow_flower","yellow_flower",1,0.747474747474748,0.702,114,4,27,1,2,1,"trafficlight.jpg",4,0.000121709818824223,0.000546724740485329,0,0.99999865727083,0.0398457425869528,0.0398982043207205,0.039830732039987,0.88042532105234,0.88042532105234,6.03162252743594e-06,0.849878873672521,0.497442891601121,NA
3,1,3,"yellow_flower","yellow_flower",1,0.75,0.472,115,4,28,1,2,1,"birdfeeder.jpg",4,0.000121709818824223,0.000546724740485329,0,0.999999701088452,0.0398452333578698,0.0398976944211759,0.039830223002739,0.880426849218215,0.880426849218215,1.34272917029499e-06,0.849878255135227,0.497438161800457,NA
3,2,5,"blue_flower","blue_flower",1,0.752475247524752,1.547,116,4,29,1,2,1,"golfball.jpg",1,0.99999993345783,0,0.011032217312228,0.0495574028563719,0.873521378536979,0.0395176940662335,0.0408906690157015,0.0460702583810863,0.873521378536979,2.98911547735869e-07,0.852661327085056,0.51830856785261,NA
3,1,3,"yellow_flower","yellow_flower",1,0.754901960784314,0.855,117,4,30,1,2,1,"butterfly2.jpg",4,0.000121709818824223,0.000546724740485329,0,0.99999993345783,0.0398451199966433,0.0398975809106956,0.0398301096842175,0.880427189408444,0.880427189408444,2.98911547735869e-07,0.849878117440444,0.497437108880348,NA
3,1,3,"yellow_flower","yellow_flower",1,0.757281553398058,0.53,118,4,31,1,2,1,"handbrush02.jpg",4,0.000121709818824223,0.000546724740485329,0,0.99999998518672,0.0398450947607807,0.039897555641607,0.0398300844578617,0.88042726513975,0.88042726513975,6.65421704404423e-08,0.849878086787573,0.497436874484824,NA
3,2,4,"blue_flower","blue_flower",1,0.759615384615385,1.184,119,4,32,1,2,1,"dogsled.jpg",1,0.99999998518672,0,0.011032217312228,0.0495574028563719,0.873521458013753,0.0395176692340618,0.0408906433207782,0.046070229431407,0.873521458013753,6.65421704404423e-08,0.852661295067104,0.51830832712865,NA
3,1,3,"blue_flower","yellow_flower",0,0.752380952380952,1.677,120,4,33,1,2,1,"seaturtle.jpg",1,2.70944216589908e-05,0.000546724740485329,0,0.99999998518672,0.0398450891429031,0.0398975500163328,0.0398300788421004,0.880427281998664,0.0398450891429031,-0.000121709818824223,0.849878079963789,0.497436822304893,NA
3,2,4,"blue_flower","blue_flower",1,0.754716981132076,0.805,121,4,34,1,2,1,"canoepaddle02.jpg",1,0.999999996702343,0,0.011032217312228,0.0495574028563719,0.873521475706463,0.0395176637060517,0.0408906376007068,0.0460702229867786,0.873521475706463,1.48132800470435e-08,0.852661287939432,0.518308273539914,NA
3,2,3,"blue_flower","blue_flower",1,0.757009345794392,0.435,122,4,35,1,2,1,"trophy01.jpg",1,0.999999999265892,0,0.011032217312228,0.0495574028563719,0.873521479645124,0.0395176624754342,0.0408906363273337,0.0460702215521082,0.873521479645124,3.29765714734975e-09,0.852661286352706,0.518308261610263,NA
3,2,2,"blue_flower","blue_flower",1,0.759259259259259,1.054,123,4,36,1,2,1,"donut.jpg",1,0.999999999836577,0,0.011032217312228,0.0495574028563719,0.873521480521929,0.0395176622014804,0.0408906360438618,0.0460702212327292,0.873521480521929,7.34107663546979e-10,0.852661285999478,0.518308258954544,NA
3,1,1,NA,"red_flower",0,0.752293577981651,NA,124,5,1,0,0,1,"artichoke01b.jpg",NA,2.70944216589908e-05,0.000546724740485329,0,0.99999998518672,0.0398338847021443,0.0398980155971787,0.0398305436355975,0.88043755606508,NA,NA,0.849873921344867,0.497405017797408,NA
3,1,5,"yellow_flower","red_flower",0,0.745454545454545,1.129,125,5,2,0,0,1,"lintroller.jpg",4,2.70944216589908e-05,0.000546724740485329,0,0.222614917345035,0.0398338847021443,0.0398980155971787,0.0398305436355975,0.88043755606508,0.88043755606508,-0.99999998518672,0.849873921344867,0.497405017797408,NA
3,1,2,"red_flower","red_flower",1,0.747747747747748,0.503,126,5,3,0,0,1,"fridge.jpg",3,2.70944216589908e-05,0.000546724740485329,0.777385079357307,0.222614917345035,0.200263695271383,0.200586111478505,0.200246898156619,0.398903295093493,0.200246898156619,1,0.990241828649821,1.33293652922132,NA
3,1,4,"red_flower","red_flower",1,0.75,0.449,127,5,4,0,0,1,"shower.jpg",3,2.70944216589908e-05,0.000546724740485329,0.950442597107248,0.222614917345035,0.0662737566396717,0.0663804546271356,0.735335741350595,0.132010047382598,0.735335741350595,0.222614920642693,0.904447017467481,0.853278615706916,NA
3,1,2,"red_flower","red_flower",1,0.752212389380531,0.619,128,5,5,0,0,1,"zebra.jpg",3,2.70944216589908e-05,0.000546724740485329,0.988967782687772,0.222614917345035,0.0435681192905354,0.0436382621477022,0.826010708047355,0.0867829105144073,0.826010708047355,0.0495574028927523,0.871174379418147,0.643202196419925,NA
3,1,4,"red_flower","red_flower",1,0.754385964912281,0.467,129,5,6,0,0,1,"jokercard.jpg",3,2.70944216589908e-05,0.000546724740485329,0.997544063818525,0.222614917345035,0.0394413639899259,0.0395048629429645,0.842490906056977,0.0785628670101322,0.842490906056977,0.011032217312228,0.864782766595785,0.599414055567138,NA
3,1,2,"red_flower","red_flower",1,0.756521739130435,0.843,130,5,7,0,0,1,"recyclingbin.jpg",3,2.70944216589908e-05,0.000546724740485329,0.999453271961858,0.222614917345035,0.0385671246022004,0.0386292160662425,0.845982181203676,0.0768214781278806,0.845982181203676,0.00245593618147455,0.863416930577862,0.589880515853944,NA
3,2,2,"blue_flower","green_flower",0,0.75,1.145,131,5,8,0,0,1,"aquarium.jpg",1,0.222614920606312,0,0.011032217312228,0.0495574028563719,0.873521480717118,0.0395176621404942,0.0408906359807567,0.0460702211616307,0.873521480717118,-0.999999999836577,0.852661285920844,0.518308258363342,NA
3,2,3,"green_flower","green_flower",1,0.752136752136752,0.469,132,5,9,0,0,1,"skiboot01a.jpg",2,0.222614920606312,0.777385079357307,0.011032217312228,0.0495574028563719,0.383632849005711,0.19258123012188,0.199272136839562,0.224513784032847,0.19258123012188,1,0.991939658115545,1.34159927147735,NA
3,2,5,"green_flower","green_flower",1,0.754237288135593,0.529,133,5,10,0,0,1,"cuttlefish.jpg",2,0.222614920606312,0.950442597107248,0.011032217312228,0.0495574028563719,0.130293726124453,0.725775307451119,0.0676790563918104,0.0762519100326177,0.725775307451119,0.222614920642693,0.90795704670966,0.876664410106163,NA
3,2,2,"green_flower","green_flower",1,0.756302521008403,0.536,134,5,11,0,0,1,"stool01.jpg",2,0.222614920606312,0.988967782687772,0.011032217312228,0.0495574028563719,0.0860378497793057,0.81891911755781,0.0446910274212423,0.0503520052416418,0.81891911755781,0.0495574028927523,0.873982338045606,0.664030344752233,NA
3,1,4,"blue_flower","red_flower",0,0.75,1.964,135,5,12,0,0,1,"pumpkin.jpg",1,6.0316225274759e-06,0.000546724740485329,0.999453271961858,0.222614917345035,0.0383746762965487,0.0384364579268354,0.846750723545716,0.0764381422308994,0.0383746762965487,-2.70944216589908e-05,0.863115727843878,0.587769372774281,NA
3,2,1,NA,"green_flower",0,0.743801652892562,NA,136,5,13,0,1,1,"mirror02.jpg",NA,0.222614920606312,0.988967782687772,0.011032217312228,0.0495574028563719,0.0779517685899629,0.835937612569265,0.0404908378873305,0.0456197809534419,NA,NA,0.867405793646412,0.619396187957843,NA
3,2,4,"blue_flower","green_flower",0,0.737704918032787,0.979,137,5,14,0,1,1,"crab01.jpg",1,0.0495574028846535,0.988967782687772,0.011032217312228,0.0495574028563719,0.0779517685899629,0.835937612569265,0.0404908378873305,0.0456197809534419,0.0779517685899629,-0.222614920606312,0.867405793646412,0.619396187957843,NA
3,2,5,"green_flower","green_flower",1,0.739837398373984,0.478,138,5,15,0,1,1,"butterfly3.jpg",2,0.0495574028846535,0.997544063818525,0.011032217312228,0.0495574028563719,0.0471440415249687,0.863868188144486,0.0418437288097047,0.047144041520841,0.863868188144486,0.011032217312228,0.856539788174216,0.547225849357414,NA
3,1,3,"green_flower","red_flower",0,0.733870967741935,0.511,139,5,16,0,1,1,"fishskeleton.jpg",2,6.0316225274759e-06,0.000121709084716538,0.999453271961858,0.222614917345035,0.038372270136992,0.0384365541017679,0.846752842268358,0.0764383334928826,0.0384365541017679,-0.000546724740485329,0.863114873606016,0.587762685399519,NA
3,2,1,NA,"green_flower",0,0.728,NA,140,5,17,0,1,1,"jackrabbit.jpg",NA,0.0495574028846535,0.997544063818525,0.011032217312228,0.0495574028563719,0.0460731553205394,0.866960449108638,0.0408932402543173,0.0460731553165055,NA,NA,0.855300747366814,0.538078618972569,NA
3,1,5,"red_flower","red_flower",1,0.73015873015873,1.662,141,5,18,0,1,1,"dartboard.jpg",3,6.0316225274759e-06,0.000121709084716538,0.999878290181176,0.222614917345035,0.0383742095661796,0.0383879543132746,0.846795639245734,0.0764421968748116,0.846795639245734,0.000546728038142485,0.863097619370953,0.587627655330555,NA
3,2,5,"green_flower","green_flower",1,0.732283464566929,0.868,142,5,19,1,1,1,"brownsugar.jpg",2,0.0495574028846535,0.999453271961858,0.011032217312228,0.0495574028563719,0.0460731553205394,0.866960449108638,0.0408932402543173,0.0460731553165055,0.866960449108638,0.00245593618147455,0.855300747366814,0.538078618972569,NA
3,1,4,"red_flower","red_flower",1,0.734375,1.268,143,5,20,1,1,1,"cremebrulee.jpg",3,6.0316225274759e-06,0.000121709084716538,0.999972905578341,0.222614917345035,0.0383314731392629,0.0383452025791663,0.846966259228288,0.076357065053283,0.846966259228288,0.000121709818824201,0.863030723471469,0.587158316126065,NA
3,2,3,"red_flower","green_flower",0,0.728682170542636,0.574,144,5,21,1,1,1,"doghouse.jpg",3,0.0495574028846535,0.999453271961858,0.00245593618147457,0.0495574028563719,0.045837580363371,0.867640688746772,0.0406841505304994,0.0458375803593578,0.0406841505304994,-0.011032217312228,0.855027827958221,0.536055330871994,NA
3,1,5,"red_flower","red_flower",1,0.730769230769231,0.58,145,5,22,1,1,1,"filingcabinet.jpg",3,6.0316225274759e-06,0.000121709084716538,0.999993968377473,0.222614917345035,0.038321964681294,0.0383356907154895,0.847004220589351,0.0763381240138649,0.847004220589351,2.70944216589353e-05,0.863015838463606,0.587053861975875,NA
3,2,5,"green_flower","green_flower",1,0.732824427480916,0.561,146,5,23,1,1,1,"hockeystick.jpg",2,0.0495574028846535,0.999878290181176,0.00245593618147457,0.0495574028563719,0.0458864937072827,0.868566549297526,0.0396604632919263,0.0458864937032652,0.868566549297526,0.000546728038142485,0.85465411814341,0.533197052311177,NA
3,2,2,"green_flower","green_flower",1,0.734848484848485,0.897,147,5,24,1,1,1,"bolt01a.jpg",2,0.0495574028846535,0.999972905578341,0.00245593618147457,0.0495574028563719,0.0458340786950276,0.868716682492998,0.0396151601209595,0.0458340786910147,0.868716682492998,0.000121709818824201,0.854593833040505,0.532748854936533,NA
3,2,2,"green_flower","green_flower",1,0.736842105263158,0.734,148,5,25,1,2,1,"ipad02.jpg",2,0.0495574028846535,0.999993968377473,0.00245593618147457,0.0495574028563719,0.0458224172499175,0.868750084565093,0.0396050809390836,0.0458224172459056,0.868750084565093,2.70944216589353e-05,0.854580419799107,0.532649111804861,NA
3,2,3,"green_flower","green_flower",1,0.738805970149254,0.447,149,5,26,1,2,1,"cannon.jpg",2,0.0495574028846535,0.99999865727083,0.00245593618147457,0.0495574028563719,0.0458198215810298,0.868757519382863,0.0396028374590894,0.0458198215770181,0.868757519382863,6.03162252743594e-06,0.854577434164355,0.532626909096188,NA
3,1,4,"green_flower","red_flower",0,0.733333333333333,0.928,150,5,27,1,2,1,"bathtub.jpg",2,6.0316225274759e-06,2.70942582356669e-05,0.999993968377473,0.222614917345035,0.0383198482196973,0.0383335734958256,0.847012670304659,0.076333907979818,0.0383335734958256,-0.000121709084716538,0.863012525186551,0.587030610299868,NA
3,2,5,"green_flower","green_flower",1,0.735294117647059,0.501,151,5,28,1,2,1,"cactus.jpg",2,0.0495574028846535,0.999999701088452,0.00245593618147457,0.0495574028563719,0.0458192437633933,0.868759174435574,0.0396023380416506,0.0458192437593816,0.868759174435574,1.34272917029499e-06,0.854576769535001,0.532621966521289,NA
3,1,5,"red_flower","red_flower",1,0.737226277372263,1.376,152,5,29,1,2,1,"lionstatue.jpg",3,6.0316225274759e-06,2.70942582356669e-05,0.99999865727083,0.222614917345035,0.0383202784236039,0.038322777193839,0.847022179427909,0.076334764954648,0.847022179427909,6.03162252743594e-06,0.863008690776904,0.587000584155449,NA
3,2,4,"green_flower","green_flower",1,0.739130434782609,0.953,153,5,30,1,2,1,"locomotive.jpg",2,0.0495574028846535,0.99999993345783,0.00245593618147457,0.0495574028563719,0.0458191151334078,0.868759542872591,0.0396022268646047,0.0458191151293962,0.868759542872591,2.98911547735869e-07,0.854576621579457,0.532620866234301,NA
3,1,3,"red_flower","red_flower",1,0.741007194244604,1.387,154,5,31,1,2,1,"stepladder.jpg",3,6.0316225274759e-06,2.70942582356669e-05,0.999999701088452,0.222614917345035,0.0383198072701288,0.0383223060096412,0.847024060312776,0.0763338264074543,0.847024060312776,1.34272917029499e-06,0.863007953243743,0.586995408226689,NA
3,1,5,"red_flower","red_flower",1,0.742857142857143,0.467,155,5,32,1,2,1,"butterfly2.jpg",3,6.0316225274759e-06,2.70942582356669e-05,0.99999993345783,0.222614917345035,0.0383197023849813,0.0383222011176544,0.847024479023232,0.076333617474132,0.847024479023232,2.98911547735869e-07,0.863007789058711,0.5869942559911,NA
3,2,2,"green_flower","green_flower",1,0.74468085106383,1.294,156,5,33,1,2,1,"battleaxe.jpg",2,0.0495574028846535,0.99999998518672,0.00245593618147457,0.0495574028563719,0.0458190864984955,0.868759624892049,0.0396022021149715,0.0458190864944839,0.868759624892049,6.65421704404423e-08,0.854576588642388,0.532620621294195,NA
3,1,3,"red_flower","red_flower",1,0.746478873239437,0.802,157,5,34,1,2,1,"crown.jpg",3,6.0316225274759e-06,2.70942582356669e-05,0.99999998518672,0.222614917345035,0.0383196790360145,0.0383221777671651,0.8470245722343,0.0763335709625208,0.8470245722343,6.65421704404423e-08,0.863007752508715,0.586993999486433,NA
3,1,2,"green_flower","red_flower",0,0.741258741258741,0.423,158,5,35,1,2,1,"snowshovel.jpg",2,6.0316225274759e-06,6.03158614700561e-06,0.99999998518672,0.222614917345035,0.0383196738381877,0.0383221725689994,0.847024592984468,0.0763335606083453,0.0383221725689994,-2.70942582356669e-05,0.863007744372143,0.586993942384676,NA
3,2,3,"green_flower","green_flower",1,0.743055555555556,0.533,159,5,36,1,2,1,"lightswitch01.jpg",2,0.0495574028846535,0.999999996702343,0.00245593618147457,0.0495574028563719,0.0458190801239388,0.868759643150798,0.0396021966053356,0.0458190801199272,0.868759643150798,1.48132800470435e-08,0.854576581310107,0.532620566766883,NA
4,1,2,"blue_flower","blue_flower",1,1,0.72144,1,0,1,0,0,1,"firehydrant.jpg",1,0.782383619550716,0,0,0,0.25,0.25,0.25,0.25,0.25,1,1,1.38629436111989,NA
4,1,4,"blue_flower","blue_flower",1,1,0.49346,2,0,2,0,0,1,"tennisracket.jpg",1,0.952643110960153,0,0,0,0.887413611129718,0.0375287962900941,0.0375287962900941,0.0375287962900941,0.887413611129718,0.217616380449284,0.847044119113465,0.475577664183778,NA
4,1,4,"blue_flower","blue_flower",1,1,1.262975,3,0,3,0,0,1,"tire.jpg",1,0.98969436521781,0,0,0,0.940080023592734,0.0199733254690887,0.0199733254690887,0.0199733254690887,0.940080023592734,0.0473568890398474,0.825321467427471,0.292576100382344,NA
4,2,4,"red_flower","red_flower",1,1,0.490835,4,0,4,0,0,1,"flipflop01b.jpg",3,0,0,0.782383619550716,0,0.25,0.25,0.25,0.25,0.25,1,1,1.38629436111989,NA
4,2,5,"red_flower","red_flower",1,1,0.64181,5,0,5,0,0,1,"shed02.jpg",3,0,0,0.952643110960153,0,0.0375287962900941,0.0375287962900941,0.887413611129718,0.0375287962900941,0.887413611129718,0.217616380449284,0.847044119113465,0.475577664183778,NA
4,2,3,"red_flower","red_flower",1,1,0.58141,6,0,6,0,1,1,"wheat.jpg",3,0,0,0.98969436521781,0,0.0199733254690887,0.0199733254690887,0.940080023592734,0.0199733254690887,0.940080023592734,0.0473568890398474,0.825321467427471,0.292576100382344,NA
4,2,5,"red_flower","red_flower",1,1,0.589365,7,0,7,0,1,1,"marble.jpg",3,0,0,0.997757325060468,0,0.0173391888202606,0.0173391888202606,0.947982433539218,0.0173391888202606,0.947982433539218,0.0103056347821899,0.822014054420328,0.261560669470753,NA
4,2,5,"red_flower","red_flower",1,1,0.4463,8,0,8,0,1,1,"corn02.jpg",3,0,0,0.999511957197135,0,0.0168111127545972,0.0168111127545972,0.949566661736209,0.0168111127545972,0.949566661736209,0.00224267493953245,0.821349685003767,0.255195895329394,NA
4,1,3,"blue_flower","blue_flower",1,1,0.320475,9,0,9,1,1,1,"skunk.jpg",1,0.997757325060468,0,0,0,0.947982433539218,0.0173391888202606,0.0173391888202606,0.0173391888202606,0.947982433539218,0.0103056347821899,0.822014054420328,0.261560669470753,NA
4,1,5,"blue_flower","blue_flower",1,1,0.38845,10,0,10,1,1,1,"motorcycle.jpg",1,0.999511957197135,0,0,0,0.949566661736209,0.0168111127545972,0.0168111127545972,0.0168111127545972,0.949566661736209,0.00224267493953245,0.821349685003767,0.255195895329394,NA
4,1,4,"blue_flower","blue_flower",1,1,0.841545,11,0,11,1,2,1,"foosballtable.jpg",1,0.999893793891736,0,0,0,0.949905312326486,0.0166982292245048,0.0166982292245048,0.0166982292245048,0.949905312326486,0.000488042802865407,0.821207611011196,0.25382859057774,NA
4,2,4,"red_flower","red_flower",1,1,0.506845,12,0,12,1,2,1,"toucan.jpg",3,0,0,0.999893793891736,0,0.0166982292245048,0.0166982292245048,0.949905312326486,0.0166982292245048,0.949905312326486,0.000488042802865407,0.821207611011196,0.25382859057774,NA
4,2,3,"red_flower","red_flower",1,1,0.46937,13,0,13,1,2,1,"shelf.jpg",3,0,0,0.999976887811138,0,0.0166737592205655,0.0166737592205655,0.949978722338303,0.0166737592205655,0.949978722338303,0.00010620610826384,0.821176810744358,0.253531879691345,NA
4,1,2,"blue_flower","blue_flower",1,1,0.70555,14,0,14,1,2,1,"toolbox02.jpg",1,0.999976887811138,0,0,0,0.949978722338303,0.0166737592205655,0.0166737592205655,0.0166737592205655,0.949978722338303,0.00010620610826384,0.821176810744358,0.253531879691345,NA
4,1,2,"blue_flower","blue_flower",1,1,0.77192,15,0,15,1,2,1,"birdfeeder.jpg",1,0.999994970409116,0,0,0,0.949994684051973,0.0166684386493422,0.0166684386493422,0.0166684386493422,0.949994684051973,2.31121888619734e-05,0.821170113647262,0.25346735013223,NA
4,1,3,"blue_flower","blue_flower",1,1,0.51924,16,2,1,0,0,1,"cashregister01.jpg",1,0.999998905478637,0,0,0,0.949998156942991,0.0166672810190031,0.0166672810190031,0.0166672810190031,0.949998156942991,5.02959088444221e-06,0.821168656511722,0.2534533093175,NA
4,1,3,"blue_flower","blue_flower",1,1,0.73091,17,2,2,0,0,1,"file.jpg",1,0.999999761814223,0,0,0,0.94999891267069,0.01666702910977,0.01666702910977,0.01666702910977,0.94999891267069,1.09452136343169e-06,0.821168339427589,0.253450253894978,NA
4,2,2,"red_flower","red_flower",1,1,0.92822,18,2,3,0,0,1,"scalpel.jpg",3,0,0,0.999994970409116,0,0.0166684386493422,0.0166684386493422,0.949994684051973,0.0166684386493422,0.949994684051973,2.31121888619734e-05,0.821170113647262,0.25346735013223,NA
4,1,4,"blue_flower","blue_flower",1,1,0.722665,19,2,4,0,0,1,"car.jpg",1,0.999999948166873,0,0,0,0.949999077127983,0.0166669742906724,0.0166669742906724,0.0166669742906724,0.949999077127983,2.3818577743473e-07,0.821168270425477,0.253449588989192,NA
4,1,3,"blue_flower","blue_flower",1,1,0.41465,20,2,5,0,0,1,"forklift.jpg",1,0.999999988720263,0,0,0,0.949999112916516,0.0166669623611614,0.0166669623611614,0.0166669623611614,0.949999112916516,5.18331267906902e-08,0.821168255409514,0.253449444295,NA
4,1,4,"blue_flower","blue_flower",1,1,0.915695,21,2,6,0,0,1,"snowglobe.jpg",1,0.999999997545344,0,0,0,0.949999120704684,0.0166669597651055,0.0166669597651055,0.0166669597651055,0.949999120704684,1.12797374773876e-08,0.821168252141796,0.253449412807183,NA
4,2,5,"red_flower","red_flower",1,1,0.370545,22,2,7,0,0,1,"rollerblade.jpg",3,0,0,0.999998905478637,0,0.0166672810190031,0.0166672810190031,0.949998156942991,0.0166672810190031,0.949998156942991,5.02959088444221e-06,0.821168656511722,0.2534533093175,NA
4,2,4,"red_flower","red_flower",1,1,0.446875,23,2,8,0,0,1,"treestump.jpg",3,0,0,0.999999761814223,0,0.01666702910977,0.01666702910977,0.94999891267069,0.01666702910977,0.94999891267069,1.09452136343169e-06,0.821168339427589,0.253450253894978,NA
4,1,5,"blue_flower","blue_flower",1,1,0.543155,24,2,9,0,0,1,"tricycle.jpg",1,0.999999999465827,0,0,0,0.949999122399516,0.0166669592001612,0.0166669592001612,0.0166669592001612,0.949999122399516,2.45465558990077e-09,0.821168251430688,0.253449405954919,NA
4,1,2,"blue_flower","blue_flower",1,1,0.674425,25,2,10,0,0,1,"beaver.jpg",1,0.999999999883755,0,0,0,0.94999912276834,0.0166669590772201,0.0166669590772201,0.0166669590772201,0.94999912276834,5.3417326117966e-10,0.821168251275939,0.253449404463754,NA
4,2,2,"red_flower","red_flower",1,1,1.250975,26,2,11,0,0,1,"fridge.jpg",3,0,0,0.999999948166873,0,0.0166669742906724,0.0166669742906724,0.949999077127983,0.0166669742906724,0.949999077127983,2.3818577743473e-07,0.821168270425477,0.253449588989192,NA
4,2,3,"red_flower","red_flower",1,1,0.5513,27,2,12,0,0,1,"moon.jpg",3,0,0,0.999999988720263,0,0.0166669623611614,0.0166669623611614,0.949999112916516,0.0166669623611614,0.949999112916516,5.18331267906902e-08,0.821168255409514,0.253449444295,NA
4,1,3,"blue_flower","blue_flower",1,1,0.84304,28,2,13,0,1,1,"bowlingpin.jpg",1,0.999999999974703,0,0,0,0.949999122848602,0.0166669590504661,0.0166669590504661,0.0166669590504661,0.949999122848602,1.16244902592655e-10,0.821168251242263,0.253449404139252,NA
4,1,4,"blue_flower","blue_flower",1,1,0.5805,29,2,14,0,1,1,"dolphin01.jpg",1,0.999999999994495,0,0,0,0.949999122866068,0.016666959044644,0.016666959044644,0.016666959044644,0.949999122866068,2.52967646829916e-11,0.821168251234934,0.253449404068635,NA
4,1,5,"blue_flower","blue_flower",1,1,0.615445,30,2,15,0,1,1,"butterfly5.jpg",1,0.999999999998802,0,0,0,0.949999122869869,0.016666959043377,0.016666959043377,0.016666959043377,0.949999122869869,5.50504086760384e-12,0.821168251233339,0.253449404053268,NA
4,2,3,"red_flower","red_flower",1,1,0.73685,31,2,16,0,1,1,"sandcastle.jpg",3,0,0,0.999999997545344,0,0.0166669597651055,0.0166669597651055,0.949999120704684,0.0166669597651055,0.949999120704684,1.12797374773876e-08,0.821168252141796,0.253449412807183,NA
4,2,2,"red_flower","red_flower",1,1,0.53238,32,2,17,0,1,1,"mirror02.jpg",3,0,0,0.999999999465827,0,0.0166669592001612,0.0166669592001612,0.949999122399516,0.0166669592001612,0.949999122399516,2.45465558990077e-09,0.821168251430688,0.253449405954919,NA
4,2,5,"red_flower","red_flower",1,1,0.86076,33,2,18,0,1,1,"bacon.jpg",3,0,0,0.999999999883755,0,0.0166669590772201,0.0166669590772201,0.94999912276834,0.0166669590772201,0.94999912276834,5.3417326117966e-10,0.821168251275939,0.253449404463754,NA
4,2,3,"red_flower","red_flower",1,1,0.37242,34,2,19,1,1,1,"triangle.jpg",3,0,0,0.999999999974703,0,0.0166669590504661,0.0166669590504661,0.949999122848602,0.0166669590504661,0.949999122848602,1.16244902592655e-10,0.821168251242263,0.253449404139252,NA
4,2,3,"red_flower","red_flower",1,1,1.11447,35,2,20,1,1,1,"jokercard.jpg",3,0,0,0.999999999994495,0,0.016666959044644,0.016666959044644,0.949999122866068,0.016666959044644,0.949999122866068,2.52967646829916e-11,0.821168251234934,0.253449404068635,NA
4,2,4,"red_flower","red_flower",1,1,0.5596,36,2,21,1,1,1,"bookshelf.jpg",3,0,0,0.999999999998802,0,0.016666959043377,0.016666959043377,0.949999122869869,0.016666959043377,0.949999122869869,5.50504086760384e-12,0.821168251233339,0.253449404053268,NA
4,2,3,"red_flower","red_flower",1,1,0.671855,37,2,22,1,1,1,"jeans01.jpg",3,0,0,0.999999999999739,0,0.0166669590431013,0.0166669590431013,0.949999122870696,0.0166669590431013,0.949999122870696,1.19804166587301e-12,0.821168251232993,0.253449404049924,NA
4,1,3,"blue_flower","blue_flower",1,1,0.456455,38,2,23,1,1,1,"dogsled.jpg",1,0.999999999999739,0,0,0,0.949999122870696,0.0166669590431013,0.0166669590431013,0.0166669590431013,0.949999122870696,1.19804166587301e-12,0.821168251232993,0.253449404049924,NA
4,2,5,"red_flower","red_flower",1,1,0.65525,39,2,24,1,1,1,"artichoke01b.jpg",3,0,0,0.999999999999943,0,0.0166669590430413,0.0166669590430413,0.949999122870876,0.0166669590430413,0.949999122870876,2.60680366181987e-13,0.821168251232917,0.253449404049196,NA
4,1,4,"blue_flower","blue_flower",1,1,0.432845,40,2,25,1,2,1,"gong.jpg",1,0.999999999999943,0,0,0,0.949999122870876,0.0166669590430413,0.0166669590430413,0.0166669590430413,0.949999122870876,2.60680366181987e-13,0.821168251232917,0.253449404049196,NA
4,2,5,"red_flower","red_flower",1,1,0.658255,41,2,26,1,2,1,"exitsign.jpg",3,0,0,0.999999999999988,0,0.0166669590430282,0.0166669590430282,0.949999122870915,0.0166669590430282,0.949999122870915,5.67323965583455e-14,0.8211682512329,0.253449404049038,NA
4,1,3,"blue_flower","blue_flower",1,1,0.37628,42,2,27,1,2,1,"zebra.jpg",1,0.999999999999988,0,0,0,0.949999122870915,0.0166669590430282,0.0166669590430282,0.0166669590430282,0.949999122870915,5.67323965583455e-14,0.8211682512329,0.253449404049038,NA
4,2,3,"red_flower","red_flower",1,1,0.88853,43,2,28,1,2,1,"apron.jpg",3,0,0,0.999999999999997,0,0.0166669590430254,0.0166669590430254,0.949999122870924,0.0166669590430254,0.949999122870924,1.23234755733392e-14,0.821168251232897,0.253449404049003,NA
4,1,4,"blue_flower","blue_flower",1,1,0.55361,44,2,29,1,2,1,"dalmatian.jpg",1,0.999999999999997,0,0,0,0.949999122870924,0.0166669590430254,0.0166669590430254,0.0166669590430254,0.949999122870924,1.23234755733392e-14,0.821168251232897,0.253449404049003,NA
4,2,4,"red_flower","red_flower",1,1,0.71238,45,2,30,1,2,1,"butterfly2.jpg",3,0,0,0.999999999999999,0,0.0166669590430248,0.0166669590430248,0.949999122870926,0.0166669590430248,0.949999122870926,2.66453525910038e-15,0.821168251232896,0.253449404048996,NA
4,1,3,"blue_flower","blue_flower",1,1,0.517955,46,2,31,1,2,1,"whiteout.jpg",1,0.999999999999999,0,0,0,0.949999122870926,0.0166669590430248,0.0166669590430248,0.0166669590430248,0.949999122870926,2.66453525910038e-15,0.821168251232896,0.253449404048996,NA
4,1,2,"blue_flower","blue_flower",1,1,0.63592,47,2,32,1,2,1,"star.jpg",1,1,0,0,0,0.949999122870926,0.0166669590430246,0.0166669590430246,0.0166669590430246,0.949999122870926,5.55111512312578e-16,0.821168251232896,0.253449404048994,NA
4,1,4,"blue_flower","blue_flower",1,1,1.11477,48,2,33,1,2,1,"golfball.jpg",1,1,0,0,0,0.949999122870926,0.0166669590430246,0.0166669590430246,0.0166669590430246,0.949999122870926,1.11022302462516e-16,0.821168251232896,0.253449404048994,NA
4,2,5,"red_flower","red_flower",1,1,0.46461,49,2,34,1,2,1,"skateboard.jpg",3,0,0,1,0,0.0166669590430246,0.0166669590430246,0.949999122870926,0.0166669590430246,0.949999122870926,5.55111512312578e-16,0.821168251232896,0.253449404048994,NA
4,2,4,"red_flower","red_flower",1,1,0.456285,50,2,35,1,2,1,"crab01.jpg",3,0,0,1,0,0.0166669590430246,0.0166669590430246,0.949999122870926,0.0166669590430246,0.949999122870926,1.11022302462516e-16,0.821168251232896,0.253449404048994,NA
4,1,5,"blue_flower","blue_flower",1,1,0.83676,51,2,36,1,2,1,"snowman.jpg",1,1,0,0,0,0.949999122870926,0.0166669590430246,0.0166669590430246,0.0166669590430246,0.949999122870926,0,0.821168251232896,0.253449404048994,NA
4,1,5,"blue_flower","green_flower",0,0.972972972972973,0.4463,52,3,1,0,0,1,"cork02.jpg",1,0.217616380449284,0,0,0,0.949999122870926,0.0166669590430246,0.0166669590430246,0.0166669590430246,0.949999122870926,-1,0.821168251232896,0.253449404048994,NA
4,1,5,"blue_flower","green_flower",0,0.947368421052632,0.781565,53,3,2,0,0,1,"trombone.jpg",1,0.0473568890398474,0,0,0,0.445521599308425,0.184826133563858,0.184826133563858,0.184826133563858,0.445521599308425,-0.217616380449284,0.983293323841993,1.29635637240571,NA
4,2,4,"red_flower","yellow_flower",0,0.923076923076923,0.59303,54,3,3,0,0,1,"electricguitar01.jpg",3,0,0,0.217616380449284,0,0.0166669590430246,0.0166669590430246,0.949999122870926,0.0166669590430246,0.949999122870926,-1,0.821168251232896,0.253449404048994,NA
4,1,3,"blue_flower","green_flower",0,0.9,1.689215,55,3,4,0,0,1,"hockeypuck.jpg",1,0.0103056347821899,0,0,0,0.28758403812927,0.237471987290243,0.237471987290243,0.237471987290243,0.28758403812927,-0.0473568890398474,0.999372589481267,1.38264320177596,NA
4,2,3,"yellow_flower","yellow_flower",1,0.902439024390244,1.03229,56,3,5,0,0,1,"sailboat.jpg",4,0,0,0.217616380449284,0.782383619550716,0.184826133563858,0.184826133563858,0.445521599308425,0.184826133563858,0.184826133563858,1,0.983293323841993,1.29635637240571,NA
4,1,2,"green_flower","green_flower",1,0.904761904761905,1.00815,57,3,6,0,0,1,"surfboard.jpg",2,0.0103056347821899,0.782383619550716,0,0,0.257893458979726,0.247368847006758,0.247368847006758,0.247368847006758,0.247368847006758,1,0.999972308902523,1.38612935462641,NA
4,1,5,"green_flower","green_flower",1,0.906976744186046,0.442635,58,3,7,0,0,1,"desktopcomputer.jpg",2,0.0103056347821899,0.952643110960153,0,0,0.0390631326575908,0.885998928829281,0.0374689692565639,0.0374689692565639,0.885998928829281,0.217616380449284,0.847618560304242,0.480020421153651,NA
4,2,4,"yellow_flower","yellow_flower",1,0.909090909090909,1.553955,59,3,8,0,0,1,"baseballglove.jpg",4,0,0,0.217616380449284,0.952643110960153,0.0356421164087802,0.0356421164087802,0.0859149753283697,0.84280079185407,0.84280079185407,0.217616380449284,0.864494698226533,0.592687020478803,NA
4,1,3,"green_flower","green_flower",1,0.911111111111111,1.92374,60,3,9,0,0,1,"bolt01a.jpg",2,0.0103056347821899,0.98969436521781,0,0,0.0208054349330309,0.939281831558962,0.0199563667540036,0.0199563667540036,0.939281831558962,0.0473568890398474,0.82565480366428,0.295632939940269,NA
4,2,2,"yellow_flower","yellow_flower",1,0.91304347826087,0.72363,61,3,10,0,0,1,"spicerack.jpg",4,0,0,0.217616380449284,0.98969436521781,0.0194260512275597,0.0194260512275597,0.0468263077534951,0.914321589791386,0.914321589791386,0.0473568890398474,0.835903407618504,0.378369889618604,NA
4,1,2,"green_flower","green_flower",1,0.914893617021277,1.312015,62,3,11,0,0,1,"hockeystick.jpg",2,0.0103056347821899,0.997757325060468,0,0,0.0180635801313936,0.947283606202105,0.0173264068332509,0.0173264068332509,0.947283606202105,0.0103056347821899,0.822306898553935,0.264341741626795,NA
4,2,3,"yellow_flower","yellow_flower",1,0.916666666666667,0.407265,63,3,12,0,0,1,"ipad02.jpg",4,0,0,0.217616380449284,0.997757325060468,0.0169252520376647,0.0169252520376647,0.0407981556023476,0.925351340322323,0.925351340322323,0.0103056347821899,0.831367490805707,0.340383005461174,NA
4,2,3,"yellow_flower","yellow_flower",1,0.918367346938776,0.86083,64,3,13,0,1,1,"locomotive.jpg",4,0,0,0.217616380449284,0.999511957197135,0.016421722332651,0.016421722332651,0.0395844021403703,0.927572153194328,0.927572153194328,0.00224267493953245,0.830450661416533,0.332528585325448,NA
4,2,4,"yellow_flower","yellow_flower",1,0.92,0.641405,65,3,14,0,1,1,"lintroller.jpg",4,0,0,0.217616380449284,0.999893793891736,0.0163139908537572,0.0163139908537572,0.039324716457144,0.928047301835342,0.928047301835342,0.000488042802865407,0.830254353429915,0.3308386476974,NA
4,1,3,"green_flower","green_flower",1,0.92156862745098,1.93576,66,3,15,0,1,1,"butterfly2.jpg",2,0.0103056347821899,0.999511957197135,0,0,0.0175138354704461,0.948887970111363,0.0167990972090956,0.0167990972090956,0.948887970111363,0.00224267493953245,0.821634280554998,0.257918975991592,NA
4,1,3,"green_flower","green_flower",1,0.923076923076923,0.482755,67,3,16,0,1,1,"coffeemachine.jpg",2,0.0103056347821899,0.999893793891736,0,0,0.0173963167773368,0.949230934333267,0.0166863744446982,0.0166863744446982,0.949230934333267,0.000488042802865407,0.821490437673073,0.256539151448325,NA
4,1,3,"green_flower","green_flower",1,0.924528301886792,1.26918,68,3,17,0,1,1,"asianelephant.jpg",2,0.0103056347821899,0.999976887811138,0,0,0.0173708418504437,0.949305279854382,0.0166619391475873,0.0166619391475873,0.949305279854382,0.00010620610826384,0.821459253698576,0.256239720829913,NA
4,2,3,"yellow_flower","yellow_flower",1,0.925925925925926,0.88176,69,3,18,0,1,1,"showerhead01.jpg",4,0,0,0.217616380449284,0.999976887811138,0.0162906332505725,0.0162906332505725,0.0392684131815941,0.928150320317261,0.928150320317261,0.00010620610826384,0.830211784336558,0.330471801687926,NA
4,1,5,"green_flower","green_flower",1,0.927272727272727,0.78644,70,3,19,1,1,1,"snowshovel.jpg",2,0.0103056347821899,0.999994970409116,0,0,0.0173653027694139,0.94932144499854,0.0166566261160229,0.0166566261160229,0.94932144499854,2.31121888619734e-05,0.821452473158669,0.256174599639301,NA
4,1,2,"green_flower","green_flower",1,0.928571428571429,0.686885,71,3,20,1,1,1,"hulahoop.jpg",2,0.0103056347821899,0.999998905478637,0,0,0.017364097596182,0.949324962152185,0.0166554701258167,0.0166554701258167,0.949324962152185,5.02959088444221e-06,0.821450997867365,0.256160430086608,NA
4,2,2,"yellow_flower","yellow_flower",1,0.929824561403509,1.593215,72,3,21,1,1,1,"gps.jpg",4,0,0,0.217616380449284,0.999994970409116,0.0162855543427926,0.0162855543427926,0.0392561705237339,0.928172720790681,0.928172720790681,2.31121888619734e-05,0.830202527730395,0.330392013154875,NA
4,2,2,"yellow_flower","yellow_flower",1,0.931034482758621,0.36861,73,3,22,1,1,1,"treadmill.jpg",4,0,0,0.217616380449284,0.999998905478637,0.0162844492828322,0.0162844492828322,0.0392535067874354,0.9281775946469,0.9281775946469,5.02959088444221e-06,0.830200513678593,0.330374651907124,NA
4,2,3,"green_flower","yellow_flower",0,0.915254237288136,2.294115,74,3,23,1,1,1,"tie02.jpg",2,0,0,0.217616380449284,0.999998905478637,0.0162842088128493,0.0162842088128493,0.0392529271368779,0.928178655237423,0.0162842088128493,0,0.830200075403904,0.330370873912024,NA
4,1,3,"green_flower","green_flower",1,0.916666666666667,0.50349,75,3,24,1,1,1,"contactlens.jpg",2,0.0103056347821899,0.999999761814223,0,0,0.0173638353412354,0.949325727511817,0.0166552185734741,0.0166552185734741,0.949325727511817,1.09452136343169e-06,0.821450676832371,0.256157346649105,NA
4,1,2,"green_flower","green_flower",1,0.918032786885246,0.498745,76,3,25,1,2,1,"wheelchair.jpg",2,0.0103056347821899,0.999999948166873,0,0,0.0173637782707599,0.94932589406516,0.0166551638320402,0.0166551638320402,0.94932589406516,2.3818577743473e-07,0.821450606970493,0.256156675646824,NA
