"SubNum","butterfly","response","respFlower","corrFlower","accuracy","cumAcc","RT","trialNum","listN","NfromChange","befAft","befAft2","trialCond","objfile","FlowNum","Q1","Q2","Q3","Q4","P1","P2","P3","P4","Prob","Delta","uncertainty","uncertainty2","CPP"
2,1,3,"yellow_flower","blue_flower",0,0,0.69177,1,0,1,0,0,1,"toolbox02.jpg",4,0,0,0,0,0.25,0.25,0.25,0.25,0.25,0,1,1.38629436111989,NA
2,1,5,"green_flower","blue_flower",0,0,1.300895,2,0,2,0,0,1,"firehydrant.jpg",2,0,0,0,0,0.25,0.25,0.25,0.25,0.25,0,1,1.38629436111989,NA
2,2,4,"green_flower","red_flower",0,0,1.38265,3,0,3,0,0,1,"shed02.jpg",2,0,0,0,0,0.25,0.25,0.25,0.25,0.25,0,1,1.38629436111989,NA
2,2,4,"red_flower","red_flower",1,0.25,0.705845,4,0,4,0,0,1,"toucan.jpg",3,0,0,1,0,0.25,0.25,0.25,0.25,0.25,1,1,1.38629436111989,NA
2,1,2,"yellow_flower","blue_flower",0,0.2,0.937415,5,0,5,0,0,1,"skunk.jpg",4,0,0,0,0,0.25,0.25,0.25,0.25,0.25,0,1,1.38629436111989,NA
2,1,5,"blue_flower","blue_flower",1,0.333333333333333,1.841375,6,0,6,0,1,1,"motorcycle.jpg",1,1,0,0,0,0.25,0.25,0.25,0.25,0.25,1,1,1.38629436111989,NA
2,2,3,"green_flower","red_flower",0,0.285714285714286,0.668035,7,0,7,0,1,1,"flipflop01b.jpg",2,0,0,1,0,0.0924611055247389,0.0924611055247389,0.722616683425784,0.0924611055247389,0.0924611055247389,0,0.909691294520007,0.895201666425665,NA
2,2,1,NA,"red_flower",0,0.25,NA,8,0,8,0,1,1,"corn02.jpg",NA,0,0,1,0,0.0924611055247389,0.0924611055247389,0.722616683425784,0.0924611055247389,NA,NA,0.909691294520007,0.895201666425665,NA
2,1,2,"blue_flower","blue_flower",1,0.333333333333333,0.535065,9,0,9,1,1,1,"birdfeeder.jpg",1,1,0,0,0,0.722616683425784,0.0924611055247389,0.0924611055247389,0.0924611055247389,0.722616683425784,0,0.909691294520007,0.895201666425665,NA
2,2,4,"green_flower","red_flower",0,0.3,0.686855,10,0,10,1,1,1,"marble.jpg",2,0,0,1,0,0.0924611055247389,0.0924611055247389,0.722616683425784,0.0924611055247389,0.0924611055247389,0,0.909691294520007,0.895201666425665,NA
2,2,5,"blue_flower","red_flower",0,0.272727272727273,1.40441,11,0,11,1,2,1,"shelf.jpg",1,0,0,1,0,0.0924611055247389,0.0924611055247389,0.722616683425784,0.0924611055247389,0.0924611055247389,0,0.909691294520007,0.895201666425665,NA
2,1,4,"blue_flower","blue_flower",1,0.333333333333333,0.535765,12,0,12,1,2,1,"foosballtable.jpg",1,1,0,0,0,0.722616683425784,0.0924611055247389,0.0924611055247389,0.0924611055247389,0.722616683425784,0,0.909691294520007,0.895201666425665,NA
2,1,4,"blue_flower","blue_flower",1,0.384615384615385,1.227495,13,0,13,1,2,1,"tennisracket.jpg",1,1,0,0,0,0.722616683425784,0.0924611055247389,0.0924611055247389,0.0924611055247389,0.722616683425784,0,0.909691294520007,0.895201666425665,NA
2,2,3,"red_flower","red_flower",1,0.428571428571429,1.59228,14,0,14,1,2,1,"wheat.jpg",3,0,0,1,0,0.0924611055247389,0.0924611055247389,0.722616683425784,0.0924611055247389,0.722616683425784,0,0.909691294520007,0.895201666425665,NA
2,1,4,"blue_flower","blue_flower",1,0.466666666666667,1.43778,15,0,15,1,2,1,"tire.jpg",1,1,0,0,0,0.722616683425784,0.0924611055247389,0.0924611055247389,0.0924611055247389,0.722616683425784,0,0.909691294520007,0.895201666425665,NA
2,1,4,"yellow_flower","blue_flower",0,0,0.89249,16,2,1,0,0,1,"handbrush02.jpg",4,1,0,0,0,0.722616683425784,0.0924611055247389,0.0924611055247389,0.0924611055247389,0.0924611055247389,0,0.909691294520007,0.895201666425665,NA
2,1,4,"green_flower","blue_flower",0,0,1.00008,17,2,2,0,0,1,"treadmill.jpg",2,1,0,0,0,0.722616683425784,0.0924611055247389,0.0924611055247389,0.0924611055247389,0.0924611055247389,0,0.909691294520007,0.895201666425665,NA
2,2,2,"red_flower","red_flower",1,0.333333333333333,1.709635,18,2,3,0,0,1,"shower.jpg",3,0,0,1,0,0.0924611055247389,0.0924611055247389,0.722616683425784,0.0924611055247389,0.722616683425784,0,0.909691294520007,0.895201666425665,NA
2,1,4,"blue_flower","blue_flower",1,0.5,0.429325,19,2,4,0,0,1,"skateboard.jpg",1,1,0,0,0,0.722616683425784,0.0924611055247389,0.0924611055247389,0.0924611055247389,0.722616683425784,0,0.909691294520007,0.895201666425665,NA
2,1,3,"blue_flower","blue_flower",1,0.6,0.550235,20,2,5,0,0,1,"barrel01.jpg",1,1,0,0,0,0.722616683425784,0.0924611055247389,0.0924611055247389,0.0924611055247389,0.722616683425784,0,0.909691294520007,0.895201666425665,NA
2,1,4,"blue_flower","blue_flower",1,0.666666666666667,0.936505,21,2,6,0,0,1,"xylophone.jpg",1,1,0,0,0,0.722616683425784,0.0924611055247389,0.0924611055247389,0.0924611055247389,0.722616683425784,0,0.909691294520007,0.895201666425665,NA
2,2,5,"red_flower","red_flower",1,0.714285714285714,0.984575,22,2,7,0,0,1,"forklift.jpg",3,0,0,1,0,0.0924611055247389,0.0924611055247389,0.722616683425784,0.0924611055247389,0.722616683425784,0,0.909691294520007,0.895201666425665,NA
2,2,4,"red_flower","red_flower",1,0.75,0.50491,23,2,8,0,0,1,"scalpel.jpg",3,0,0,1,0,0.0924611055247389,0.0924611055247389,0.722616683425784,0.0924611055247389,0.722616683425784,0,0.909691294520007,0.895201666425665,NA
2,1,5,"blue_flower","blue_flower",1,0.777777777777778,0.67293,24,2,9,0,0,1,"sailboat.jpg",1,1,0,0,0,0.722616683425784,0.0924611055247389,0.0924611055247389,0.0924611055247389,0.722616683425784,0,0.909691294520007,0.895201666425665,NA
2,1,2,"blue_flower","blue_flower",1,0.8,1.51986,25,2,10,0,0,1,"snowman.jpg",1,1,0,0,0,0.722616683425784,0.0924611055247389,0.0924611055247389,0.0924611055247389,0.722616683425784,0,0.909691294520007,0.895201666425665,NA
2,2,2,"red_flower","red_flower",1,0.818181818181818,0.72473,26,2,11,0,0,1,"stool01.jpg",3,0,0,1,0,0.0924611055247389,0.0924611055247389,0.722616683425784,0.0924611055247389,0.722616683425784,0,0.909691294520007,0.895201666425665,NA
2,2,3,"red_flower","red_flower",1,0.833333333333333,1.93107,27,2,12,0,0,1,"butterfly1.jpg",3,0,0,1,0,0.0924611055247389,0.0924611055247389,0.722616683425784,0.0924611055247389,0.722616683425784,0,0.909691294520007,0.895201666425665,NA
2,1,3,"blue_flower","blue_flower",1,0.846153846153846,1.63175,28,2,13,0,1,1,"desktopcomputer.jpg",1,1,0,0,0,0.722616683425784,0.0924611055247389,0.0924611055247389,0.0924611055247389,0.722616683425784,0,0.909691294520007,0.895201666425665,NA
2,1,5,"red_flower","blue_flower",0,0.785714285714286,1.459175,29,2,14,0,1,1,"triangle.jpg",3,1,0,0,0,0.722616683425784,0.0924611055247389,0.0924611055247389,0.0924611055247389,0.0924611055247389,0,0.909691294520007,0.895201666425665,NA
2,1,5,"blue_flower","blue_flower",1,0.8,0.878775,30,2,15,0,1,1,"dartboard.jpg",1,1,0,0,0,0.722616683425784,0.0924611055247389,0.0924611055247389,0.0924611055247389,0.722616683425784,0,0.909691294520007,0.895201666425665,NA
2,2,5,"blue_flower","red_flower",0,0.75,0.782865,31,2,16,0,1,1,"electricguitar01.jpg",1,0,0,1,0,0.0924611055247389,0.0924611055247389,0.722616683425784,0.0924611055247389,0.0924611055247389,0,0.909691294520007,0.895201666425665,NA
2,2,2,"red_flower","red_flower",1,0.764705882352941,1.115775,32,2,17,0,1,1,"doubledoors.jpg",3,0,0,1,0,0.0924611055247389,0.0924611055247389,0.722616683425784,0.0924611055247389,0.722616683425784,0,0.909691294520007,0.895201666425665,NA
2,2,5,"red_flower","red_flower",1,0.777777777777778,0.55015,33,2,18,0,1,1,"waterfountain02.jpg",3,0,0,1,0,0.0924611055247389,0.0924611055247389,0.722616683425784,0.0924611055247389,0.722616683425784,0,0.909691294520007,0.895201666425665,NA
2,2,3,"red_flower","red_flower",1,0.789473684210526,0.573515,34,2,19,1,1,1,"skiboot01a.jpg",3,0,0,1,0,0.0924611055247389,0.0924611055247389,0.722616683425784,0.0924611055247389,0.722616683425784,0,0.909691294520007,0.895201666425665,NA
2,2,3,"red_flower","red_flower",1,0.8,0.5883,35,2,20,1,1,1,"rockingchair.jpg",3,0,0,1,0,0.0924611055247389,0.0924611055247389,0.722616683425784,0.0924611055247389,0.722616683425784,0,0.909691294520007,0.895201666425665,NA
2,2,4,"red_flower","red_flower",1,0.80952380952381,1.24097,36,2,21,1,1,1,"trophy01.jpg",3,0,0,1,0,0.0924611055247389,0.0924611055247389,0.722616683425784,0.0924611055247389,0.722616683425784,0,0.909691294520007,0.895201666425665,NA
2,2,3,"red_flower","red_flower",1,0.818181818181818,0.988135,37,2,22,1,1,1,"fridge.jpg",3,0,0,1,0,0.0924611055247389,0.0924611055247389,0.722616683425784,0.0924611055247389,0.722616683425784,0,0.909691294520007,0.895201666425665,NA
2,1,3,"blue_flower","blue_flower",1,0.826086956521739,0.48223,38,2,23,1,1,1,"filingcabinet.jpg",1,1,0,0,0,0.722616683425784,0.0924611055247389,0.0924611055247389,0.0924611055247389,0.722616683425784,0,0.909691294520007,0.895201666425665,NA
2,2,5,"red_flower","red_flower",1,0.833333333333333,1.285795,39,2,24,1,1,1,"crown.jpg",3,0,0,1,0,0.0924611055247389,0.0924611055247389,0.722616683425784,0.0924611055247389,0.722616683425784,0,0.909691294520007,0.895201666425665,NA
2,1,4,"blue_flower","blue_flower",1,0.84,0.433035,40,2,25,1,2,1,"file.jpg",1,1,0,0,0,0.722616683425784,0.0924611055247389,0.0924611055247389,0.0924611055247389,0.722616683425784,0,0.909691294520007,0.895201666425665,NA
2,2,5,"red_flower","red_flower",1,0.846153846153846,0.870485,41,2,26,1,2,1,"blender.jpg",3,0,0,1,0,0.0924611055247389,0.0924611055247389,0.722616683425784,0.0924611055247389,0.722616683425784,0,0.909691294520007,0.895201666425665,NA
2,1,3,"blue_flower","blue_flower",1,0.851851851851852,0.61911,42,2,27,1,2,1,"sandcastle.jpg",1,1,0,0,0,0.722616683425784,0.0924611055247389,0.0924611055247389,0.0924611055247389,0.722616683425784,0,0.909691294520007,0.895201666425665,NA
2,2,3,"red_flower","red_flower",1,0.857142857142857,0.616875,43,2,28,1,2,1,"crab01.jpg",3,0,0,1,0,0.0924611055247389,0.0924611055247389,0.722616683425784,0.0924611055247389,0.722616683425784,0,0.909691294520007,0.895201666425665,NA
2,1,4,"blue_flower","blue_flower",1,0.862068965517241,0.998295,44,2,29,1,2,1,"butterfly1.jpg",1,1,0,0,0,0.722616683425784,0.0924611055247389,0.0924611055247389,0.0924611055247389,0.722616683425784,0,0.909691294520007,0.895201666425665,NA
2,2,4,"red_flower","red_flower",1,0.866666666666667,0.878635,45,2,30,1,2,1,"doghouse.jpg",3,0,0,1,0,0.0924611055247389,0.0924611055247389,0.722616683425784,0.0924611055247389,0.722616683425784,0,0.909691294520007,0.895201666425665,NA
2,1,3,"blue_flower","blue_flower",1,0.870967741935484,1.05154,46,2,31,1,2,1,"chime.jpg",1,1,0,0,0,0.722616683425784,0.0924611055247389,0.0924611055247389,0.0924611055247389,0.722616683425784,0,0.909691294520007,0.895201666425665,NA
2,1,2,"blue_flower","blue_flower",1,0.875,0.874645,47,2,32,1,2,1,"contactlens.jpg",1,1,0,0,0,0.722616683425784,0.0924611055247389,0.0924611055247389,0.0924611055247389,0.722616683425784,0,0.909691294520007,0.895201666425665,NA
2,1,4,"blue_flower","blue_flower",1,0.878787878787879,1.315535,48,2,33,1,2,1,"snowglobe.jpg",1,1,0,0,0,0.722616683425784,0.0924611055247389,0.0924611055247389,0.0924611055247389,0.722616683425784,0,0.909691294520007,0.895201666425665,NA
2,2,5,"red_flower","red_flower",1,0.882352941176471,0.584235,49,2,34,1,2,1,"beerbottle.jpg",3,0,0,1,0,0.0924611055247389,0.0924611055247389,0.722616683425784,0.0924611055247389,0.722616683425784,0,0.909691294520007,0.895201666425665,NA
2,2,4,"red_flower","red_flower",1,0.885714285714286,1.285815,50,2,35,1,2,1,"salmon.jpg",3,0,0,1,0,0.0924611055247389,0.0924611055247389,0.722616683425784,0.0924611055247389,0.722616683425784,0,0.909691294520007,0.895201666425665,NA
2,1,5,"blue_flower","blue_flower",1,0.888888888888889,1.362765,51,2,36,1,2,1,"microwave.jpg",1,1,0,0,0,0.722616683425784,0.0924611055247389,0.0924611055247389,0.0924611055247389,0.722616683425784,0,0.909691294520007,0.895201666425665,NA
2,1,5,"blue_flower","green_flower",0,0.864864864864865,0.62419,52,3,1,0,0,1,"whiteout.jpg",1,0,0,0,0,0.722616683425784,0.0924611055247389,0.0924611055247389,0.0924611055247389,0.722616683425784,-1,0.909691294520007,0.895201666425665,NA
2,1,3,"red_flower","green_flower",0,0.842105263157895,1.803355,53,3,2,0,0,1,"dromedary.jpg",3,0,0,0,0,0.25,0.25,0.25,0.25,0.25,0,1,1.38629436111989,NA
2,2,4,"red_flower","yellow_flower",0,0.82051282051282,1.698595,54,3,3,0,0,1,"cruiseship.jpg",3,0,0,0,0,0.0924611055247389,0.0924611055247389,0.722616683425784,0.0924611055247389,0.722616683425784,-1,0.909691294520007,0.895201666425665,NA
2,1,5,"red_flower","green_flower",0,0.8,1.9447,55,3,4,0,0,1,"rollerblade.jpg",3,0,0,0,0,0.25,0.25,0.25,0.25,0.25,0,1,1.38629436111989,NA
2,2,5,"red_flower","yellow_flower",0,0.780487804878049,0.658165,56,3,5,0,0,1,"windshieldwiper02.jpg",3,0,0,0,0,0.25,0.25,0.25,0.25,0.25,0,1,1.38629436111989,NA
2,1,3,"blue_flower","green_flower",0,0.761904761904762,0.46175,57,3,6,0,0,1,"candycane01a.jpg",1,0,0,0,0,0.25,0.25,0.25,0.25,0.25,0,1,1.38629436111989,NA
2,1,4,"red_flower","green_flower",0,0.744186046511628,0.790395,58,3,7,0,0,1,"canoepaddle02.jpg",3,0,0,0,0,0.25,0.25,0.25,0.25,0.25,0,1,1.38629436111989,NA
2,2,2,"red_flower","yellow_flower",0,0.727272727272727,1.33789,59,3,8,0,0,1,"hotdog.jpg",3,0,0,0,0,0.25,0.25,0.25,0.25,0.25,0,1,1.38629436111989,NA
2,1,3,"green_flower","green_flower",1,0.733333333333333,1.0858,60,3,9,0,0,1,"cactus.jpg",2,0,1,0,0,0.25,0.25,0.25,0.25,0.25,1,1,1.38629436111989,NA
2,2,4,"green_flower","yellow_flower",0,0.717391304347826,1.10519,61,3,10,0,0,1,"bookshelf.jpg",2,0,0,0,0,0.25,0.25,0.25,0.25,0.25,0,1,1.38629436111989,NA
2,1,2,"green_flower","green_flower",1,0.723404255319149,0.651745,62,3,11,0,0,1,"bathtub.jpg",2,0,1,0,0,0.0924611055247389,0.722616683425784,0.0924611055247389,0.0924611055247389,0.722616683425784,0,0.909691294520007,0.895201666425665,NA
2,2,3,"yellow_flower","yellow_flower",1,0.729166666666667,0.67933,63,3,12,0,0,1,"spicerack.jpg",4,0,0,0,1,0.25,0.25,0.25,0.25,0.25,1,1,1.38629436111989,NA
2,2,3,"yellow_flower","yellow_flower",1,0.73469387755102,0.601925,64,3,13,0,1,1,"stepladder.jpg",4,0,0,0,1,0.0924611055247389,0.0924611055247389,0.0924611055247389,0.722616683425784,0.722616683425784,0,0.909691294520007,0.895201666425665,NA
2,2,4,"yellow_flower","yellow_flower",1,0.74,0.51113,65,3,14,0,1,1,"snowshovel.jpg",4,0,0,0,1,0.0924611055247389,0.0924611055247389,0.0924611055247389,0.722616683425784,0.722616683425784,0,0.909691294520007,0.895201666425665,NA
2,1,3,"green_flower","green_flower",1,0.745098039215686,1.296935,66,3,15,0,1,1,"seaturtle.jpg",2,0,1,0,0,0.0924611055247389,0.722616683425784,0.0924611055247389,0.0924611055247389,0.722616683425784,0,0.909691294520007,0.895201666425665,NA
2,1,3,"green_flower","green_flower",1,0.75,0.50778,67,3,16,0,1,1,"winniethepooh.jpg",2,0,1,0,0,0.0924611055247389,0.722616683425784,0.0924611055247389,0.0924611055247389,0.722616683425784,0,0.909691294520007,0.895201666425665,NA
2,1,3,"green_flower","green_flower",1,0.754716981132076,0.71595,68,3,17,0,1,1,"witchhat.jpg",2,0,1,0,0,0.0924611055247389,0.722616683425784,0.0924611055247389,0.0924611055247389,0.722616683425784,0,0.909691294520007,0.895201666425665,NA
2,2,3,"yellow_flower","yellow_flower",1,0.759259259259259,1.492595,69,3,18,0,1,1,"granolabar01.jpg",4,0,0,0,1,0.0924611055247389,0.0924611055247389,0.0924611055247389,0.722616683425784,0.722616683425784,0,0.909691294520007,0.895201666425665,NA
2,1,5,"green_flower","green_flower",1,0.763636363636364,0.829085,70,3,19,1,1,1,"shovel01.jpg",2,0,1,0,0,0.0924611055247389,0.722616683425784,0.0924611055247389,0.0924611055247389,0.722616683425784,0,0.909691294520007,0.895201666425665,NA
2,1,2,"green_flower","green_flower",1,0.767857142857143,0.564905,71,3,20,1,1,1,"fluorescentlightbulb.jpg",2,0,1,0,0,0.0924611055247389,0.722616683425784,0.0924611055247389,0.0924611055247389,0.722616683425784,0,0.909691294520007,0.895201666425665,NA
2,2,4,"green_flower","yellow_flower",0,0.754385964912281,1.48681,72,3,21,1,1,1,"urinal.jpg",2,0,0,0,1,0.0924611055247389,0.0924611055247389,0.0924611055247389,0.722616683425784,0.0924611055247389,0,0.909691294520007,0.895201666425665,NA
2,2,2,"yellow_flower","yellow_flower",1,0.758620689655172,0.927935,73,3,22,1,1,1,"frisbee.jpg",4,0,0,0,1,0.0924611055247389,0.0924611055247389,0.0924611055247389,0.722616683425784,0.722616683425784,0,0.909691294520007,0.895201666425665,NA
2,2,3,"green_flower","yellow_flower",0,0.745762711864407,1.820445,74,3,23,1,1,1,"porcupine.jpg",2,0,0,0,1,0.0924611055247389,0.0924611055247389,0.0924611055247389,0.722616683425784,0.0924611055247389,0,0.909691294520007,0.895201666425665,NA
2,1,3,"green_flower","green_flower",1,0.75,0.623595,75,3,24,1,1,1,"showerhead01.jpg",2,0,1,0,0,0.0924611055247389,0.722616683425784,0.0924611055247389,0.0924611055247389,0.722616683425784,0,0.909691294520007,0.895201666425665,NA
2,1,2,"green_flower","green_flower",1,0.754098360655738,0.67093,76,3,25,1,2,1,"handheldtelescope.jpg",2,0,1,0,0,0.0924611055247389,0.722616683425784,0.0924611055247389,0.0924611055247389,0.722616683425784,0,0.909691294520007,0.895201666425665,NA
2,2,5,"yellow_flower","yellow_flower",1,0.758064516129032,0.885565,77,3,26,1,2,1,"acorn.jpg",4,0,0,0,1,0.0924611055247389,0.0924611055247389,0.0924611055247389,0.722616683425784,0.722616683425784,0,0.909691294520007,0.895201666425665,NA
2,1,4,"yellow_flower","green_flower",0,0.746031746031746,2.05171,78,3,27,1,2,1,"polarbear.jpg",4,0,1,0,0,0.0924611055247389,0.722616683425784,0.0924611055247389,0.0924611055247389,0.0924611055247389,0,0.909691294520007,0.895201666425665,NA
2,1,4,"green_flower","green_flower",1,0.75,1.99623,79,3,28,1,2,1,"pirateflag.jpg",2,0,1,0,0,0.0924611055247389,0.722616683425784,0.0924611055247389,0.0924611055247389,0.722616683425784,0,0.909691294520007,0.895201666425665,NA
2,2,2,"yellow_flower","yellow_flower",1,0.753846153846154,0.533265,80,3,29,1,2,1,"seagull.jpg",4,0,0,0,1,0.0924611055247389,0.0924611055247389,0.0924611055247389,0.722616683425784,0.722616683425784,0,0.909691294520007,0.895201666425665,NA
2,1,2,"yellow_flower","green_flower",0,0.742424242424242,1.01428,81,3,30,1,2,1,"toyanimal05.jpg",4,0,1,0,0,0.0924611055247389,0.722616683425784,0.0924611055247389,0.0924611055247389,0.0924611055247389,0,0.909691294520007,0.895201666425665,NA
2,2,4,"yellow_flower","yellow_flower",1,0.746268656716418,1.375635,82,3,31,1,2,1,"greywolf.jpg",4,0,0,0,1,0.0924611055247389,0.0924611055247389,0.0924611055247389,0.722616683425784,0.722616683425784,0,0.909691294520007,0.895201666425665,NA
2,2,5,"green_flower","yellow_flower",0,0.735294117647059,1.979045,83,3,32,1,2,1,"butterfly3.jpg",2,0,0,0,1,0.0924611055247389,0.0924611055247389,0.0924611055247389,0.722616683425784,0.0924611055247389,0,0.909691294520007,0.895201666425665,NA
2,2,4,"yellow_flower","yellow_flower",1,0.739130434782609,0.90394,84,3,33,1,2,1,"surfboard.jpg",4,0,0,0,1,0.0924611055247389,0.0924611055247389,0.0924611055247389,0.722616683425784,0.722616683425784,0,0.909691294520007,0.895201666425665,NA
2,1,2,"green_flower","green_flower",1,0.742857142857143,0.53573,85,3,34,1,2,1,"donut.jpg",2,0,1,0,0,0.0924611055247389,0.722616683425784,0.0924611055247389,0.0924611055247389,0.722616683425784,0,0.909691294520007,0.895201666425665,NA
2,2,5,"yellow_flower","yellow_flower",1,0.746478873239437,1.4628,86,3,35,1,2,1,"apron.jpg",4,0,0,0,1,0.0924611055247389,0.0924611055247389,0.0924611055247389,0.722616683425784,0.722616683425784,0,0.909691294520007,0.895201666425665,NA
2,2,4,"yellow_flower","yellow_flower",1,0.75,1.26608,87,3,36,1,2,1,"footballhelmet.jpg",4,0,0,0,1,0.0924611055247389,0.0924611055247389,0.0924611055247389,0.722616683425784,0.722616683425784,0,0.909691294520007,0.895201666425665,NA
2,1,2,"green_flower","yellow_flower",0,0.73972602739726,1.30201,88,4,1,0,0,1,"christmaslights.jpg",2,0,0,0,0,0.0924611055247389,0.722616683425784,0.0924611055247389,0.0924611055247389,0.722616683425784,-1,0.909691294520007,0.895201666425665,NA
2,2,5,"yellow_flower","blue_flower",0,0.72972972972973,0.98994,89,4,2,0,0,1,"zebra.jpg",4,0,0,0,0,0.0924611055247389,0.0924611055247389,0.0924611055247389,0.722616683425784,0.722616683425784,-1,0.909691294520007,0.895201666425665,NA
2,2,2,"yellow_flower","blue_flower",0,0.72,1.300615,90,4,3,0,0,1,"giraffe.jpg",4,0,0,0,0,0.25,0.25,0.25,0.25,0.25,0,1,1.38629436111989,NA
2,1,5,"red_flower","yellow_flower",0,0.710526315789474,1.59118,91,4,4,0,0,1,"mirror02.jpg",3,0,0,0,0,0.25,0.25,0.25,0.25,0.25,0,1,1.38629436111989,NA
2,1,2,"yellow_flower","yellow_flower",1,0.714285714285714,0.47343,92,4,5,0,0,1,"recyclingbin.jpg",4,0,0,0,1,0.25,0.25,0.25,0.25,0.25,1,1,1.38629436111989,NA
2,1,2,"yellow_flower","yellow_flower",1,0.717948717948718,0.7477,93,4,6,0,0,1,"fishingrod.jpg",4,0,0,0,1,0.0924611055247389,0.0924611055247389,0.0924611055247389,0.722616683425784,0.722616683425784,0,0.909691294520007,0.895201666425665,NA
2,1,1,NA,"yellow_flower",0,0.708860759493671,NA,94,4,7,0,0,1,"barn.jpg",NA,0,0,0,1,0.0924611055247389,0.0924611055247389,0.0924611055247389,0.722616683425784,NA,NA,0.909691294520007,0.895201666425665,NA
2,2,3,"blue_flower","blue_flower",1,0.7125,0.68313,95,4,8,0,0,1,"lightswitch01.jpg",1,1,0,0,0,0.25,0.25,0.25,0.25,0.25,1,1,1.38629436111989,NA
2,2,2,"blue_flower","blue_flower",1,0.716049382716049,0.594555,96,4,9,0,0,1,"birdfeeder.jpg",1,1,0,0,0,0.722616683425784,0.0924611055247389,0.0924611055247389,0.0924611055247389,0.722616683425784,0,0.909691294520007,0.895201666425665,NA
2,1,4,"blue_flower","yellow_flower",0,0.707317073170732,1.141275,97,4,10,0,0,1,"cannon.jpg",1,0,0,0,1,0.0924611055247389,0.0924611055247389,0.0924611055247389,0.722616683425784,0.0924611055247389,0,0.909691294520007,0.895201666425665,NA
2,2,3,"blue_flower","blue_flower",1,0.710843373493976,1.21427,98,4,11,0,0,1,"coffeemachine.jpg",1,1,0,0,0,0.722616683425784,0.0924611055247389,0.0924611055247389,0.0924611055247389,0.722616683425784,0,0.909691294520007,0.895201666425665,NA
2,1,4,"yellow_flower","yellow_flower",1,0.714285714285714,0.54188,99,4,12,0,0,1,"treestump.jpg",4,0,0,0,1,0.0924611055247389,0.0924611055247389,0.0924611055247389,0.722616683425784,0.722616683425784,0,0.909691294520007,0.895201666425665,NA
2,2,4,"yellow_flower","blue_flower",0,0.705882352941177,1.410895,100,4,13,0,1,1,"panda.jpg",4,1,0,0,0,0.722616683425784,0.0924611055247389,0.0924611055247389,0.0924611055247389,0.0924611055247389,0,0.909691294520007,0.895201666425665,NA
2,2,5,"blue_flower","blue_flower",1,0.709302325581395,0.999305,101,4,14,0,1,1,"butterfly2.jpg",1,1,0,0,0,0.722616683425784,0.0924611055247389,0.0924611055247389,0.0924611055247389,0.722616683425784,0,0.909691294520007,0.895201666425665,NA
2,2,5,"green_flower","blue_flower",0,0.701149425287356,1.430965,102,4,15,0,1,1,"cymbal.jpg",2,1,0,0,0,0.722616683425784,0.0924611055247389,0.0924611055247389,0.0924611055247389,0.0924611055247389,0,0.909691294520007,0.895201666425665,NA
2,1,5,"red_flower","yellow_flower",0,0.693181818181818,0.963465,103,4,16,0,1,1,"baseballglove.jpg",3,0,0,0,1,0.0924611055247389,0.0924611055247389,0.0924611055247389,0.722616683425784,0.0924611055247389,0,0.909691294520007,0.895201666425665,NA
2,2,2,"green_flower","blue_flower",0,0.685393258426966,0.48198,104,4,17,0,1,1,"weddingcake.jpg",2,1,0,0,0,0.722616683425784,0.0924611055247389,0.0924611055247389,0.0924611055247389,0.0924611055247389,0,0.909691294520007,0.895201666425665,NA
2,2,4,"yellow_flower","blue_flower",0,0.677777777777778,2.080305,105,4,18,0,1,1,"key07.jpg",4,1,0,0,0,0.722616683425784,0.0924611055247389,0.0924611055247389,0.0924611055247389,0.0924611055247389,0,0.909691294520007,0.895201666425665,NA
2,1,4,"yellow_flower","yellow_flower",1,0.681318681318681,1.288975,106,4,19,1,1,1,"tricycle.jpg",4,0,0,0,1,0.0924611055247389,0.0924611055247389,0.0924611055247389,0.722616683425784,0.722616683425784,0,0.909691294520007,0.895201666425665,NA
2,2,3,"blue_flower","blue_flower",1,0.684782608695652,0.65366,107,4,20,1,1,1,"escalator.jpg",1,1,0,0,0,0.722616683425784,0.0924611055247389,0.0924611055247389,0.0924611055247389,0.722616683425784,0,0.909691294520007,0.895201666425665,NA
2,2,5,"red_flower","blue_flower",0,0.67741935483871,0.8949,108,4,21,1,1,1,"volleyball.jpg",3,1,0,0,0,0.722616683425784,0.0924611055247389,0.0924611055247389,0.0924611055247389,0.0924611055247389,0,0.909691294520007,0.895201666425665,NA
2,2,4,"yellow_flower","blue_flower",0,0.670212765957447,0.937155,109,4,22,1,1,1,"football.jpg",4,1,0,0,0,0.722616683425784,0.0924611055247389,0.0924611055247389,0.0924611055247389,0.0924611055247389,0,0.909691294520007,0.895201666425665,NA
2,1,2,"blue_flower","yellow_flower",0,0.663157894736842,0.7985,110,4,23,1,1,1,"windturbine.jpg",1,0,0,0,1,0.0924611055247389,0.0924611055247389,0.0924611055247389,0.722616683425784,0.0924611055247389,0,0.909691294520007,0.895201666425665,NA
2,1,5,"yellow_flower","yellow_flower",1,0.666666666666667,0.41246,111,4,24,1,1,1,"locomotive.jpg",4,0,0,0,1,0.0924611055247389,0.0924611055247389,0.0924611055247389,0.722616683425784,0.722616683425784,0,0.909691294520007,0.895201666425665,NA
2,1,3,"yellow_flower","yellow_flower",1,0.670103092783505,1.045065,112,4,25,1,2,1,"bowlingpin.jpg",4,0,0,0,1,0.0924611055247389,0.0924611055247389,0.0924611055247389,0.722616683425784,0.722616683425784,0,0.909691294520007,0.895201666425665,NA
2,1,3,"blue_flower","yellow_flower",0,0.663265306122449,0.58089,113,4,26,1,2,1,"musicstand.jpg",1,0,0,0,1,0.0924611055247389,0.0924611055247389,0.0924611055247389,0.722616683425784,0.0924611055247389,0,0.909691294520007,0.895201666425665,NA
2,1,5,"green_flower","yellow_flower",0,0.656565656565657,0.58993,114,4,27,1,2,1,"car.jpg",2,0,0,0,1,0.0924611055247389,0.0924611055247389,0.0924611055247389,0.722616683425784,0.0924611055247389,0,0.909691294520007,0.895201666425665,NA
2,1,3,"yellow_flower","yellow_flower",1,0.66,1.3527,115,4,28,1,2,1,"dreamcatcher.jpg",4,0,0,0,1,0.0924611055247389,0.0924611055247389,0.0924611055247389,0.722616683425784,0.722616683425784,0,0.909691294520007,0.895201666425665,NA
2,2,5,"blue_flower","blue_flower",1,0.663366336633663,0.80972,116,4,29,1,2,1,"table01.jpg",1,1,0,0,0,0.722616683425784,0.0924611055247389,0.0924611055247389,0.0924611055247389,0.722616683425784,0,0.909691294520007,0.895201666425665,NA
2,1,3,"yellow_flower","yellow_flower",1,0.666666666666667,2.22833,117,4,30,1,2,1,"jaguar.jpg",4,0,0,0,1,0.0924611055247389,0.0924611055247389,0.0924611055247389,0.722616683425784,0.722616683425784,0,0.909691294520007,0.895201666425665,NA
2,1,3,"yellow_flower","yellow_flower",1,0.669902912621359,0.5662,118,4,31,1,2,1,"butterfly3.jpg",4,0,0,0,1,0.0924611055247389,0.0924611055247389,0.0924611055247389,0.722616683425784,0.722616683425784,0,0.909691294520007,0.895201666425665,NA
2,2,4,"blue_flower","blue_flower",1,0.673076923076923,0.5278,119,4,32,1,2,1,"skihelmet01.jpg",1,1,0,0,0,0.722616683425784,0.0924611055247389,0.0924611055247389,0.0924611055247389,0.722616683425784,0,0.909691294520007,0.895201666425665,NA
2,1,3,"blue_flower","yellow_flower",0,0.666666666666667,0.91649,120,4,33,1,2,1,"bleachers.jpg",1,0,0,0,1,0.0924611055247389,0.0924611055247389,0.0924611055247389,0.722616683425784,0.0924611055247389,0,0.909691294520007,0.895201666425665,NA
2,2,4,"blue_flower","blue_flower",1,0.669811320754717,0.64138,121,4,34,1,2,1,"jackrabbit.jpg",1,1,0,0,0,0.722616683425784,0.0924611055247389,0.0924611055247389,0.0924611055247389,0.722616683425784,0,0.909691294520007,0.895201666425665,NA
2,2,3,"blue_flower","blue_flower",1,0.672897196261682,0.40585,122,4,35,1,2,1,"hulahoop.jpg",1,1,0,0,0,0.722616683425784,0.0924611055247389,0.0924611055247389,0.0924611055247389,0.722616683425784,0,0.909691294520007,0.895201666425665,NA
2,2,2,"blue_flower","blue_flower",1,0.675925925925926,0.656225,123,4,36,1,2,1,"dogsled.jpg",1,1,0,0,0,0.722616683425784,0.0924611055247389,0.0924611055247389,0.0924611055247389,0.722616683425784,0,0.909691294520007,0.895201666425665,NA
2,1,2,"blue_flower","red_flower",0,0.669724770642202,0.967735,124,5,1,0,0,1,"trombone.jpg",1,0,0,0,1,0.0924611055247389,0.0924611055247389,0.0924611055247389,0.722616683425784,0.0924611055247389,0,0.909691294520007,0.895201666425665,NA
2,1,4,"blue_flower","red_flower",0,0.663636363636364,0.64404,125,5,2,0,0,1,"trafficlight.jpg",1,0,0,0,1,0.0924611055247389,0.0924611055247389,0.0924611055247389,0.722616683425784,0.0924611055247389,0,0.909691294520007,0.895201666425665,NA
2,1,2,"red_flower","red_flower",1,0.666666666666667,0.40177,126,5,3,0,0,1,"aquarium.jpg",3,0,0,1,1,0.0924611055247389,0.0924611055247389,0.0924611055247389,0.722616683425784,0.0924611055247389,1,0.909691294520007,0.895201666425665,NA
2,1,4,"red_flower","red_flower",1,0.669642857142857,0.414385,127,5,4,0,0,1,"dolphin01.jpg",3,0,0,1,1,0.0567191909644538,0.0567191909644538,0.443280809035546,0.443280809035546,0.443280809035546,0,0.952553354085435,1.04679144630543,NA
2,1,2,"red_flower","red_flower",1,0.672566371681416,0.867525,128,5,5,0,0,1,"battleaxe.jpg",3,0,0,1,1,0.0567191909644538,0.0567191909644538,0.443280809035546,0.443280809035546,0.443280809035546,0,0.952553354085435,1.04679144630543,NA
2,1,4,"red_flower","red_flower",1,0.675438596491228,0.735255,129,5,6,0,0,1,"cookingpot.jpg",3,0,0,1,1,0.0567191909644538,0.0567191909644538,0.443280809035546,0.443280809035546,0.443280809035546,0,0.952553354085435,1.04679144630543,NA
2,1,2,"red_flower","red_flower",1,0.678260869565217,0.729045,130,5,7,0,0,1,"star.jpg",3,0,0,1,1,0.0567191909644538,0.0567191909644538,0.443280809035546,0.443280809035546,0.443280809035546,0,0.952553354085435,1.04679144630543,NA
2,2,4,"red_flower","green_flower",0,0.672413793103448,0.49439,131,5,8,0,0,1,"bacon.jpg",3,1,0,0,0,0.722616683425784,0.0924611055247389,0.0924611055247389,0.0924611055247389,0.0924611055247389,0,0.909691294520007,0.895201666425665,NA
2,2,3,"green_flower","green_flower",1,0.675213675213675,0.49395,132,5,9,0,0,1,"golfball.jpg",2,1,1,0,0,0.722616683425784,0.0924611055247389,0.0924611055247389,0.0924611055247389,0.0924611055247389,1,0.909691294520007,0.895201666425665,NA
2,2,5,"green_flower","green_flower",1,0.677966101694915,0.80376,133,5,10,0,0,1,"cuttlefish.jpg",2,1,1,0,0,0.443280809035546,0.443280809035546,0.0567191909644538,0.0567191909644538,0.443280809035546,0,0.952553354085435,1.04679144630543,NA
2,2,2,"green_flower","green_flower",1,0.680672268907563,1.12459,134,5,11,0,0,1,"tent.jpg",2,1,1,0,0,0.443280809035546,0.443280809035546,0.0567191909644538,0.0567191909644538,0.443280809035546,0,0.952553354085435,1.04679144630543,NA
2,1,2,"red_flower","red_flower",1,0.683333333333333,0.84781,135,5,12,0,0,1,"chipmunk.jpg",3,0,0,1,1,0.0567191909644538,0.0567191909644538,0.443280809035546,0.443280809035546,0.443280809035546,0,0.952553354085435,1.04679144630543,NA
2,2,5,"red_flower","green_flower",0,0.677685950413223,1.465835,136,5,13,0,1,1,"artichoke01b.jpg",3,1,1,0,0,0.443280809035546,0.443280809035546,0.0567191909644538,0.0567191909644538,0.0567191909644538,0,0.952553354085435,1.04679144630543,NA
2,2,3,"green_flower","green_flower",1,0.680327868852459,0.783045,137,5,14,0,1,1,"ipad02.jpg",2,1,1,0,0,0.443280809035546,0.443280809035546,0.0567191909644538,0.0567191909644538,0.443280809035546,0,0.952553354085435,1.04679144630543,NA
2,2,2,"red_flower","green_flower",0,0.67479674796748,1.029815,138,5,15,0,1,1,"cloud.jpg",3,1,1,0,0,0.443280809035546,0.443280809035546,0.0567191909644538,0.0567191909644538,0.0567191909644538,0,0.952553354085435,1.04679144630543,NA
2,1,5,"red_flower","red_flower",1,0.67741935483871,0.53785,139,5,16,0,1,1,"butterfly4.jpg",3,0,0,1,1,0.0567191909644538,0.0567191909644538,0.443280809035546,0.443280809035546,0.443280809035546,0,0.952553354085435,1.04679144630543,NA
2,2,4,"green_flower","green_flower",1,0.68,0.57826,140,5,17,0,1,1,"lionstatue.jpg",2,1,1,0,0,0.443280809035546,0.443280809035546,0.0567191909644538,0.0567191909644538,0.443280809035546,0,0.952553354085435,1.04679144630543,NA
2,1,5,"red_flower","red_flower",1,0.682539682539683,0.570575,141,5,18,0,1,1,"ironingboard01.jpg",3,0,0,1,1,0.0567191909644538,0.0567191909644538,0.443280809035546,0.443280809035546,0.443280809035546,0,0.952553354085435,1.04679144630543,NA
2,2,3,"red_flower","green_flower",0,0.677165354330709,0.92147,142,5,19,1,1,1,"cork02.jpg",3,1,1,0,0,0.443280809035546,0.443280809035546,0.0567191909644538,0.0567191909644538,0.0567191909644538,0,0.952553354085435,1.04679144630543,NA
2,1,4,"red_flower","red_flower",1,0.6796875,0.63404,143,5,20,1,1,1,"hockeystick.jpg",3,0,0,1,1,0.0567191909644538,0.0567191909644538,0.443280809035546,0.443280809035546,0.443280809035546,0,0.952553354085435,1.04679144630543,NA
2,2,3,"red_flower","green_flower",0,0.674418604651163,1.846125,144,5,21,1,1,1,"asianelephant.jpg",3,1,1,0,0,0.443280809035546,0.443280809035546,0.0567191909644538,0.0567191909644538,0.0567191909644538,0,0.952553354085435,1.04679144630543,NA
2,1,5,"red_flower","red_flower",1,0.676923076923077,0.46506,145,5,22,1,1,1,"jeans01.jpg",3,0,0,1,1,0.0567191909644538,0.0567191909644538,0.443280809035546,0.443280809035546,0.443280809035546,0,0.952553354085435,1.04679144630543,NA
2,2,4,"blue_flower","green_flower",0,0.67175572519084,0.496185,146,5,23,1,1,1,"hockeypuck.jpg",1,0,1,0,0,0.443280809035546,0.443280809035546,0.0567191909644538,0.0567191909644538,0.443280809035546,-1,0.952553354085435,1.04679144630543,NA
2,2,2,"green_flower","green_flower",1,0.674242424242424,1.40526,147,5,24,1,1,1,"lantern03.jpg",2,0,1,0,0,0.0924611055247389,0.722616683425784,0.0924611055247389,0.0924611055247389,0.722616683425784,0,0.909691294520007,0.895201666425665,NA
2,2,2,"green_flower","green_flower",1,0.676691729323308,0.915635,148,5,25,1,2,1,"monarchbutterfly.jpg",2,0,1,0,0,0.0924611055247389,0.722616683425784,0.0924611055247389,0.0924611055247389,0.722616683425784,0,0.909691294520007,0.895201666425665,NA
2,2,3,"green_flower","green_flower",1,0.67910447761194,1.775295,149,5,26,1,2,1,"tulip02.jpg",2,0,1,0,0,0.0924611055247389,0.722616683425784,0.0924611055247389,0.0924611055247389,0.722616683425784,0,0.909691294520007,0.895201666425665,NA
2,1,3,"red_flower","red_flower",1,0.681481481481481,0.597195,150,5,27,1,2,1,"jellyfish.jpg",3,0,0,1,1,0.0567191909644538,0.0567191909644538,0.443280809035546,0.443280809035546,0.443280809035546,0,0.952553354085435,1.04679144630543,NA
2,2,5,"green_flower","green_flower",1,0.683823529411765,0.9263,151,5,28,1,2,1,"callbell.jpg",2,0,1,0,0,0.0924611055247389,0.722616683425784,0.0924611055247389,0.0924611055247389,0.722616683425784,0,0.909691294520007,0.895201666425665,NA
2,1,4,"yellow_flower","red_flower",0,0.678832116788321,0.627615,152,5,29,1,2,1,"basketball01.jpg",4,0,0,1,0,0.0567191909644538,0.0567191909644538,0.443280809035546,0.443280809035546,0.443280809035546,-1,0.952553354085435,1.04679144630543,NA
2,2,4,"green_flower","green_flower",1,0.681159420289855,0.88368,153,5,30,1,2,1,"jokercard.jpg",2,0,1,0,0,0.0924611055247389,0.722616683425784,0.0924611055247389,0.0924611055247389,0.722616683425784,0,0.909691294520007,0.895201666425665,NA
2,1,3,"red_flower","red_flower",1,0.683453237410072,0.80648,154,5,31,1,2,1,"soccerball.jpg",3,0,0,1,0,0.0924611055247389,0.0924611055247389,0.722616683425784,0.0924611055247389,0.722616683425784,0,0.909691294520007,0.895201666425665,NA
2,1,4,"green_flower","red_flower",0,0.678571428571429,0.89003,155,5,32,1,2,1,"butterfly2.jpg",2,0,0,1,0,0.0924611055247389,0.0924611055247389,0.722616683425784,0.0924611055247389,0.0924611055247389,0,0.909691294520007,0.895201666425665,NA
2,2,2,"green_flower","green_flower",1,0.680851063829787,0.863775,156,5,33,1,2,1,"eyepatch.jpg",2,0,1,0,0,0.0924611055247389,0.722616683425784,0.0924611055247389,0.0924611055247389,0.722616683425784,0,0.909691294520007,0.895201666425665,NA
2,1,3,"red_flower","red_flower",1,0.683098591549296,1.72846,157,5,34,1,2,1,"cashregister01.jpg",3,0,0,1,0,0.0924611055247389,0.0924611055247389,0.722616683425784,0.0924611055247389,0.722616683425784,0,0.909691294520007,0.895201666425665,NA
2,1,2,"green_flower","red_flower",0,0.678321678321678,0.887335,158,5,35,1,2,1,"balcony02.jpg",2,0,0,1,0,0.0924611055247389,0.0924611055247389,0.722616683425784,0.0924611055247389,0.0924611055247389,0,0.909691294520007,0.895201666425665,NA
2,2,3,"green_flower","green_flower",1,0.680555555555556,1.71096,159,5,36,1,2,1,"fingerprint.jpg",2,0,1,0,0,0.0924611055247389,0.722616683425784,0.0924611055247389,0.0924611055247389,0.722616683425784,0,0.909691294520007,0.895201666425665,NA
3,1,5,"red_flower","blue_flower",0,0,2.06,1,0,1,0,0,1,"toolbox02.jpg",3,0,0,0,0,0.25,0.25,0.25,0.25,0.25,0,1,1.38629436111989,NA
3,2,2,"blue_flower","red_flower",0,0,0.778,2,0,2,0,0,1,"wheat.jpg",1,0,0,0,0,0.25,0.25,0.25,0.25,0.25,0,1,1.38629436111989,NA
3,2,5,"red_flower","red_flower",1,0.333333333333333,1.135,3,0,3,0,0,1,"corn02.jpg",3,0,0,0.777385023515031,0,0.25,0.25,0.25,0.25,0.25,1,1,1.38629436111989,NA
3,2,5,"red_flower","red_flower",1,0.5,0.854,4,0,4,0,0,1,"marble.jpg",3,0,0,0.950442572244597,0,0.0709403110818612,0.0709403110818612,0.787179066754416,0.0709403110818612,0.787179066754416,0.222614976484969,0.886328786268441,0.751477984267503,NA
3,1,4,"green_flower","blue_flower",0,0.4,0.63,5,0,5,0,0,1,"skunk.jpg",2,0,0,0,0,0.25,0.25,0.25,0.25,0.25,0,1,1.38629436111989,NA
3,1,2,"yellow_flower","blue_flower",0,0.333333333333333,0.957,6,0,6,0,1,1,"tire.jpg",4,0,0,0,0,0.25,0.25,0.25,0.25,0.25,0,1,1.38629436111989,NA
3,1,4,"blue_flower","blue_flower",1,0.428571428571429,1.559,7,0,7,0,1,1,"tennisracket.jpg",1,0.777385023515031,0,0,0,0.25,0.25,0.25,0.25,0.25,1,1,1.38629436111989,NA
3,1,4,"blue_flower","blue_flower",1,0.5,0.499,8,0,8,0,1,1,"foosballtable.jpg",1,0.950442572244597,0,0,0,0.787179066754416,0.0709403110818612,0.0709403110818612,0.0709403110818612,0.787179066754416,0.222614976484969,0.886328786268441,0.751477984267503,NA
3,1,2,"blue_flower","blue_flower",1,0.555555555555556,0.595,9,0,9,1,1,1,"birdfeeder.jpg",1,0.988967774385575,0,0,0,0.863392034464602,0.0455359885117994,0.0455359885117994,0.0455359885117994,0.863392034464602,0.0495574277554033,0.85673495732518,0.548837039456947,NA
3,2,5,"red_flower","red_flower",1,0.6,0.752,10,0,10,1,1,1,"shed02.jpg",3,0,0,0.988967774385575,0,0.0455359885117994,0.0455359885117994,0.863392034464602,0.0455359885117994,0.863392034464602,0.0495574277554033,0.85673495732518,0.548837039456947,NA
3,1,2,"blue_flower","blue_flower",1,0.636363636363636,1.646,11,0,11,1,2,1,"firehydrant.jpg",1,0.997544061354268,0,0,0,0.876859343293929,0.0410468855686903,0.0410468855686903,0.0410468855686903,0.876859343293929,0.0110322256144246,0.851320590887038,0.508420013131135,NA
3,1,5,"blue_flower","blue_flower",1,0.666666666666667,1.214,12,0,12,1,2,1,"motorcycle.jpg",1,0.999453271276132,0,0,0,0.879697604738863,0.0401007984203789,0.0401007984203789,0.0401007984203789,0.879697604738863,0.00245593864573201,0.850173355107404,0.499692749848193,NA
3,2,3,"red_flower","red_flower",1,0.692307692307692,0.744,13,0,13,1,2,1,"shelf.jpg",3,0,0,0.997544061354268,0,0.0410468855686903,0.0410468855686903,0.876859343293929,0.0410468855686903,0.876859343293929,0.0110322256144246,0.851320590887038,0.508420013131135,NA
3,2,4,"red_flower","red_flower",1,0.714285714285714,2.007,14,0,14,1,2,1,"flipflop01b.jpg",3,0,0,0.999453271276132,0,0.0401007984203789,0.0401007984203789,0.879697604738863,0.0401007984203789,0.879697604738863,0.00245593864573201,0.850173355107404,0.499692749848193,NA
3,2,4,"red_flower","red_flower",1,0.733333333333333,0.593,15,0,15,1,2,1,"toucan.jpg",3,0,0,0.999878289997992,0,0.0398927635709722,0.0398927635709722,0.880321709287083,0.0398927635709722,0.880321709287083,0.000546728723868184,0.849920810566748,0.49776355842817,NA
3,1,3,"blue_flower","blue_flower",1,1,1.24,16,2,1,0,0,1,"treestump.jpg",1,0.999878289997992,0,0,0,0.880321709287083,0.0398927635709722,0.0398927635709722,0.0398927635709722,0.880321709287083,0.000546728723868184,0.849920810566748,0.49776355842817,NA
3,1,5,"red_flower","blue_flower",0,0.5,0.906,17,2,2,0,0,1,"spicerack.jpg",3,0.999878289997992,0,0,0,0.880460263045532,0.0398465789848228,0.0398465789848228,0.0398465789848228,0.0398465789848228,0,0.849864731077046,0.497334769149626,NA
3,2,2,"red_flower","red_flower",1,0.666666666666667,0.996,18,2,3,0,0,1,"football.jpg",3,0,0,0.999972905530765,0,0.0398465789848228,0.0398465789848228,0.880460263045532,0.0398465789848228,0.880460263045532,0.000121710002007558,0.849864731077046,0.497334769149626,NA
3,1,4,"blue_flower","blue_flower",1,0.75,0.627,19,2,4,0,0,1,"bowlingpin.jpg",1,0.999972905530765,0,0,0,0.880460263045532,0.0398465789848228,0.0398465789848228,0.0398465789848228,0.880460263045532,0.000121710002007558,0.849864731077046,0.497334769149626,NA
3,1,3,"blue_flower","blue_flower",1,0.8,0.487,20,2,5,0,0,1,"beerbottle.jpg",1,0.999993968365368,0,0,0,0.880491088315778,0.0398363038947405,0.0398363038947405,0.0398363038947405,0.880491088315778,2.70944692348785e-05,0.849852253911328,0.497239347839683,NA
3,1,4,"blue_flower","blue_flower",1,0.833333333333333,0.493,21,2,6,0,0,1,"key07.jpg",1,0.999998657267798,0,0,0,0.880497949547623,0.0398340168174591,0.0398340168174591,0.0398340168174591,0.880497949547623,6.03163463164247e-06,0.84984947665267,0.497218107292664,NA
3,2,5,"red_flower","red_flower",1,0.857142857142857,1.105,22,2,7,0,0,1,"moon.jpg",3,0,0,0.999993968365368,0,0.0398363038947405,0.0398363038947405,0.880491088315778,0.0398363038947405,0.880491088315778,2.70944692348785e-05,0.849852253911328,0.497239347839683,NA
3,2,4,"red_flower","red_flower",1,0.875,0.971,23,2,8,0,0,1,"exitsign.jpg",3,0,0,0.999998657267798,0,0.0398340168174591,0.0398340168174591,0.880497949547623,0.0398340168174591,0.880497949547623,6.03163463164247e-06,0.84984947665267,0.497218107292664,NA
3,1,5,"blue_flower","blue_flower",1,0.888888888888889,0.978,24,2,9,0,0,1,"wheelchair.jpg",1,0.999999701087703,0,0,0,0.880499476914257,0.0398335076952478,0.0398335076952478,0.0398335076952478,0.880499476914257,1.34273220164793e-06,0.84984885841041,0.497213378911337,NA
3,1,2,"blue_flower","blue_flower",1,0.9,0.873,25,2,10,0,0,1,"file.jpg",1,0.999999933457646,0,0,0,0.880499816926648,0.0398333943577841,0.0398333943577841,0.0398333943577841,0.880499816926648,2.98912297469478e-07,0.849848720781272,0.497212326306929,NA
3,2,2,"red_flower","red_flower",1,0.909090909090909,1.23,26,2,11,0,0,1,"pirateflag.jpg",3,0,0,0.999999701087703,0,0.0398335076952478,0.0398335076952478,0.880499476914257,0.0398335076952478,0.880499476914257,1.34273220164793e-06,0.84984885841041,0.497213378911337,NA
3,2,3,"red_flower","red_flower",1,0.916666666666667,1.239,27,2,12,0,0,1,"butterfly1.jpg",3,0,0,0.999999933457646,0,0.0398333943577841,0.0398333943577841,0.880499816926648,0.0398333943577841,0.880499816926648,2.98912297469478e-07,0.849848720781272,0.497212326306929,NA
3,1,3,"blue_flower","blue_flower",1,0.923076923076923,0.655,28,2,13,0,1,1,"seagull.jpg",1,0.999999985186675,0,0,0,0.880499892618385,0.0398333691272052,0.0398333691272052,0.0398333691272052,0.880499892618385,6.65423540713306e-08,0.849848690143006,0.497212091981627,NA
3,1,4,"blue_flower","blue_flower",1,0.928571428571429,1.867,29,2,14,0,1,1,"fluorescentlightbulb.jpg",1,0.999999996702332,0,0,0,0.880499909468493,0.0398333635105023,0.0398333635105023,0.0398333635105023,0.880499909468493,1.48133245669868e-08,0.849848683322472,0.497212039817315,NA
3,1,5,"blue_flower","blue_flower",1,0.933333333333333,1.586,30,2,15,0,1,1,"xylophone.jpg",1,0.99999999926589,0,0,0,0.880499913219579,0.0398333622601402,0.0398333622601402,0.0398333622601402,0.880499913219579,3.29766791651309e-09,0.849848681804119,0.497212028204759,NA
3,2,3,"red_flower","red_flower",1,0.9375,1.417,31,2,16,0,1,1,"basketball01.jpg",3,0,0,0.999999985186675,0,0.0398333691272052,0.0398333691272052,0.880499892618385,0.0398333691272052,0.880499892618385,6.65423540713306e-08,0.849848690143006,0.497212091981627,NA
3,2,5,"blue_flower","red_flower",0,0.882352941176471,0.853,32,2,17,0,1,1,"shelves.jpg",1,0,0,0.999999985186675,0,0.0398333635105023,0.0398333635105023,0.880499909468493,0.0398333635105023,0.0398333635105023,0,0.849848683322472,0.497212039817315,NA
3,2,5,"red_flower","red_flower",1,0.888888888888889,1.146,33,2,18,0,1,1,"cork02.jpg",3,0,0,0.999999996702332,0,0.0398333635105023,0.0398333635105023,0.880499909468493,0.0398333635105023,0.880499909468493,1.48133245669868e-08,0.849848683322472,0.497212039817315,NA
3,2,3,"red_flower","red_flower",1,0.894736842105263,0.489,34,2,19,1,1,1,"cloud.jpg",3,0,0,0.99999999926589,0,0.0398333622601402,0.0398333622601402,0.880499913219579,0.0398333622601402,0.880499913219579,3.29766791651309e-09,0.849848681804119,0.497212028204759,NA
3,2,3,"red_flower","red_flower",1,0.9,0.764,35,2,20,1,1,1,"beaver.jpg",3,0,0,0.999999999836576,0,0.0398333619817909,0.0398333619817909,0.880499914054627,0.0398333619817909,0.880499914054627,7.34110217059936e-10,0.849848681466111,0.49721202561963,NA
3,2,5,"blue_flower","red_flower",0,0.857142857142857,0.703,36,2,21,1,1,1,"urinal.jpg",1,0,0,0.999999999836576,0,0.0398333619198262,0.0398333619198262,0.880499914240521,0.0398333619198262,0.0398333619198262,0,0.849848681390865,0.497212025044141,NA
3,2,3,"red_flower","red_flower",1,0.863636363636364,0.578,37,2,22,1,1,1,"tulip02.jpg",3,0,0,0.999999999963619,0,0.0398333619198262,0.0398333619198262,0.880499914240521,0.0398333619198262,0.880499914240521,1.63423941046403e-10,0.849848681390865,0.497212025044141,NA
3,1,3,"blue_flower","blue_flower",1,0.869565217391304,0.483,38,2,23,1,1,1,"horse.jpg",1,0.999999999836576,0,0,0,0.880499914054627,0.0398333619817909,0.0398333619817909,0.0398333619817909,0.880499914054627,7.34110217059936e-10,0.849848681466111,0.49721202561963,NA
3,2,5,"red_flower","red_flower",1,0.875,0.54,39,2,24,1,1,1,"musicstand.jpg",3,0,0,0.999999999991901,0,0.0398333619060319,0.0398333619060319,0.880499914281904,0.0398333619060319,0.880499914281904,3.63805652270344e-11,0.849848681374114,0.497212024916029,NA
3,1,4,"blue_flower","blue_flower",1,0.88,1,40,2,25,1,2,1,"frisbee.jpg",1,0.999999999963619,0,0,0,0.880499914240521,0.0398333619198262,0.0398333619198262,0.0398333619198262,0.880499914240521,1.63423941046403e-10,0.849848681390865,0.497212025044141,NA
3,2,5,"red_flower","red_flower",1,0.884615384615385,0.804,41,2,26,1,2,1,"footballhelmet.jpg",3,0,0,0.999999999998197,0,0.0398333619029611,0.0398333619029611,0.880499914291117,0.0398333619029611,0.880499914291117,8.09885492003559e-12,0.849848681370385,0.497212024887509,NA
3,1,3,"blue_flower","blue_flower",1,0.888888888888889,1,42,2,27,1,2,1,"soccerball.jpg",1,0.999999999991901,0,0,0,0.880499914281904,0.0398333619060319,0.0398333619060319,0.0398333619060319,0.880499914281904,3.63805652270344e-11,0.849848681374114,0.497212024916029,NA
3,2,3,"red_flower","red_flower",1,0.892857142857143,0.743,43,2,28,1,2,1,"windshieldwiper02.jpg",3,0,0,0.999999999999599,0,0.0398333619022775,0.0398333619022775,0.880499914293168,0.0398333619022775,0.880499914293168,1.80289116968879e-12,0.849848681369555,0.49721202488116,NA
3,1,4,"blue_flower","blue_flower",1,0.896551724137931,1.413,44,2,29,1,2,1,"windturbine.jpg",1,0.999999999998197,0,0,0,0.880499914291117,0.0398333619029611,0.0398333619029611,0.0398333619029611,0.880499914291117,8.09885492003559e-12,0.849848681370385,0.497212024887509,NA
3,2,4,"red_flower","red_flower",1,0.9,1.919,45,2,30,1,2,1,"butterfly2.jpg",3,0,0,0.999999999999911,0,0.0398333619021253,0.0398333619021253,0.880499914293624,0.0398333619021253,0.880499914293624,4.01345623401994e-13,0.84984868136937,0.497212024879747,NA
3,1,3,"blue_flower","blue_flower",1,0.903225806451613,0.892,46,2,31,1,2,1,"blender.jpg",1,0.999999999999599,0,0,0,0.880499914293168,0.0398333619022775,0.0398333619022775,0.0398333619022775,0.880499914293168,1.80289116968879e-12,0.849848681369555,0.49721202488116,NA
3,1,2,"blue_flower","blue_flower",1,0.90625,0.817,47,2,32,1,2,1,"rockingchair.jpg",1,0.999999999999911,0,0,0,0.880499914293624,0.0398333619021253,0.0398333619021253,0.0398333619021253,0.880499914293624,4.01345623401994e-13,0.84984868136937,0.497212024879747,NA
3,1,4,"blue_flower","blue_flower",1,0.909090909090909,0.925,48,2,33,1,2,1,"desktopcomputer.jpg",1,0.99999999999998,0,0,0,0.880499914293726,0.0398333619020914,0.0398333619020914,0.0398333619020914,0.880499914293726,8.93729534823251e-14,0.849848681369329,0.497212024879432,NA
3,2,5,"red_flower","red_flower",1,0.911764705882353,0.761,49,2,34,1,2,1,"tricycle.jpg",3,0,0,0.99999999999998,0,0.0398333619020914,0.0398333619020914,0.880499914293726,0.0398333619020914,0.880499914293726,8.93729534823251e-14,0.849848681369329,0.497212024879432,NA
3,2,4,"red_flower","red_flower",1,0.914285714285714,1.084,50,2,35,1,2,1,"dreamcatcher.jpg",3,0,0,0.999999999999996,0,0.0398333619020839,0.0398333619020839,0.880499914293748,0.0398333619020839,0.880499914293748,1.98729921407903e-14,0.84984868136932,0.497212024879362,NA
3,1,5,"blue_flower","blue_flower",1,0.916666666666667,0.594,51,2,36,1,2,1,"contactlens.jpg",1,0.999999999999996,0,0,0,0.880499914293748,0.0398333619020839,0.0398333619020839,0.0398333619020839,0.880499914293748,1.98729921407903e-14,0.84984868136932,0.497212024879362,NA
3,1,5,"blue_flower","green_flower",0,0.891891891891892,0.973,52,3,1,0,0,1,"sailboat.jpg",1,0.222614976484968,0,0,0,0.880499914293753,0.0398333619020822,0.0398333619020822,0.0398333619020822,0.880499914293753,-0.999999999999996,0.849848681369318,0.497212024879347,NA
3,1,5,"blue_flower","green_flower",0,0.868421052631579,0.454,53,3,2,0,0,1,"asianelephant.jpg",1,0.0495574277554031,0,0,0,0.399045404599375,0.200318198466875,0.200318198466875,0.200318198466875,0.399045404599375,-0.222614976484968,0.990223399985715,1.33283881637338,NA
3,2,4,"red_flower","yellow_flower",0,0.846153846153846,0.672,54,3,3,0,0,1,"triangle.jpg",3,0,0,0.222614976484968,0,0.0398333619020822,0.0398333619020822,0.880499914293753,0.0398333619020822,0.880499914293753,-0.999999999999996,0.849848681369318,0.497212024879347,NA
3,1,3,"blue_flower","green_flower",0,0.825,1.211,55,3,4,0,0,1,"redonion.jpg",1,0.0110322256144246,0,0,0,0.279852545914102,0.240049151361966,0.240049151361966,0.240049151361966,0.279852545914102,-0.0495574277554031,0.99960407926085,1.38397684150495,NA
3,2,5,"red_flower","yellow_flower",0,0.804878048780488,0.527,56,3,5,0,0,1,"acorn.jpg",3,0,0,0.0495574277554031,0,0.200318198466875,0.200318198466875,0.399045404599375,0.200318198466875,0.399045404599375,-0.222614976484968,0.990223399985715,1.33283881637338,NA
3,1,3,"blue_flower","green_flower",0,0.785714285714286,0.583,57,3,6,0,0,1,"communitymailbox.jpg",1,0.00245593864573201,0,0,0,0.256458277566772,0.247847240811076,0.247847240811076,0.247847240811076,0.256458277566772,-0.0110322256144246,0.99998146285513,1.38618376521457,NA
3,1,3,"blue_flower","green_flower",0,0.767441860465116,0.802,58,3,7,0,0,1,"handheldtelescope.jpg",1,0.000546728723868157,0,0,0,0.251428281339131,0.24952390622029,0.24952390622029,0.24952390622029,0.251428281339131,-0.00245593864573201,0.999999093339674,1.38628892803655,NA
3,2,2,"red_flower","yellow_flower",0,0.75,1.264,59,3,8,0,0,1,"callbell.jpg",3,0,0,0.0110322256144246,0,0.240049151361966,0.240049151361966,0.279852545914102,0.240049151361966,0.279852545914102,-0.0495574277554031,0.99960407926085,1.38397684150495,NA
3,1,3,"green_flower","green_flower",1,0.755555555555556,0.488,60,3,9,0,0,1,"candycane01a.jpg",2,0.000546728723868157,0.777385023515031,0,0,0.250317488253107,0.249894170582298,0.249894170582298,0.249894170582298,0.249894170582298,1,0.999999955200539,1.38629409239892,NA
3,2,2,"yellow_flower","yellow_flower",1,0.760869565217391,0.692,61,3,10,0,0,1,"coffeemaker.jpg",4,0,0,0.0110322256144246,0.777385023515031,0.247847240811076,0.247847240811076,0.256458277566772,0.247847240811076,0.247847240811076,1,0.99998146285513,1.38618376521457,NA
3,1,3,"yellow_flower","green_flower",0,0.74468085106383,0.904,62,3,11,0,0,1,"electricguitar01.jpg",4,0.000546728723868157,0.777385023515031,0,0,0.0710519446461056,0.787084481222433,0.0709317870657306,0.0709317870657306,0.0709317870657306,0,0.886364261829113,0.751705520913238,NA
3,2,3,"yellow_flower","yellow_flower",1,0.75,0.986,63,3,12,0,0,1,"weddingcake.jpg",4,0,0,0.0110322256144246,0.950442572244597,0.0707658942305221,0.0707658942305221,0.0732245365550225,0.785243674983933,0.785243674983933,0.222614976484969,0.887052995273612,0.756096533788668,NA
3,2,3,"yellow_flower","yellow_flower",1,0.755102040816326,0.682,64,3,13,0,1,1,"balcony02.jpg",4,0,0,0.0110322256144246,0.988967774385575,0.045464061113733,0.045464061113733,0.0470436336763826,0.862028244096151,0.862028244096151,0.0495574277554033,0.857280081035922,0.552823931130445,NA
3,2,4,"yellow_flower","yellow_flower",1,0.76,0.54,65,3,14,0,1,1,"cashregister01.jpg",4,0,0,0.0110322256144246,0.997544061354268,0.0409884317527942,0.0409884317527942,0.0424125060786839,0.875610630415728,0.875610630415728,0.0110322256144246,0.851824333757062,0.512219670022496,NA
3,1,3,"green_flower","green_flower",1,0.764705882352941,0.491,66,3,15,0,1,1,"doubledoors.jpg",2,0.000546728723868157,0.950442572244597,0,0,0.0710519446461056,0.787084481222433,0.0709317870657306,0.0709317870657306,0.787084481222433,0.222614976484969,0.886364261829113,0.751705520913238,NA
3,1,3,"green_flower","green_flower",1,0.769230769230769,0.624,67,3,16,0,1,1,"butterfly3.jpg",2,0.000546728723868157,0.988967774385575,0,0,0.0456096077128873,0.863325439777911,0.045532476254601,0.045532476254601,0.863325439777911,0.0495574277554033,0.856761607022709,0.549032923073136,NA
3,1,4,"blue_flower","green_flower",0,0.754716981132076,0.838,68,3,17,0,1,1,"waterfountain02.jpg",1,0.000121710002007567,0.988967774385575,0,0,0.0411135597452139,0.876798376940349,0.0410440316572186,0.0410440316572186,0.0411135597452139,-0.000546728723868157,0.851345209964908,0.508606613208278,NA
3,2,3,"yellow_flower","yellow_flower",1,0.759259259259259,1.375,69,3,18,0,1,1,"panda.jpg",4,0,0,0.0110322256144246,0.999453271276132,0.0400450063162335,0.0400450063162335,0.0414363029074028,0.87847368446013,0.87847368446013,0.00245593864573201,0.850668012983592,0.503449513149142,NA
3,1,5,"green_flower","green_flower",1,0.763636363636364,1.566,70,3,19,1,1,1,"greywolf.jpg",2,0.000121710002007567,0.997544061354268,0,0,0.0410617192776274,0.876845779464706,0.0410462506288334,0.0410462506288334,0.876845779464706,0.0110322256144246,0.851326068372201,0.508461537784989,NA
3,1,3,"yellow_flower","green_flower",0,0.75,2.1,71,3,20,1,1,1,"forklift.jpg",4,0.000121710002007567,0.997544061354268,0,0,0.040115304530616,0.879684310644641,0.0401001924123715,0.0401001924123715,0.0401001924123715,0,0.850178733449864,0.49973380169729,NA
3,2,4,"green_flower","yellow_flower",0,0.736842105263158,0.684,72,3,21,1,1,1,"barrel01.jpg",2,0,0,0.0110322256144246,0.999453271276132,0.0398375484431037,0.0398375484431037,0.0412216372583666,0.879103265855426,0.0398375484431037,0,0.850413453855479,0.501510723612437,NA
3,2,2,"yellow_flower","yellow_flower",1,0.741379310344828,0.567,73,3,22,1,1,1,"fingerprint.jpg",4,0,0,0.0110322256144246,0.999878289997992,0.0398375484431037,0.0398375484431037,0.0412216372583666,0.879103265855426,0.879103265855426,0.000546728723868184,0.850413453855479,0.501510723612437,NA
3,2,4,"yellow_flower","yellow_flower",1,0.745762711864407,1.852,74,3,23,1,1,1,"bacon.jpg",4,0,0,0.0110322256144246,0.999972905530765,0.0397914915418158,0.0397914915418158,0.0411739801872784,0.87924303672909,0.87924303672909,0.000121710002007558,0.850356926294253,0.501079795317185,NA
3,1,3,"green_flower","green_flower",1,0.75,1.563,75,3,24,1,1,1,"witchhat.jpg",2,0.000121710002007567,0.999453271276132,0,0,0.040115304530616,0.879684310644641,0.0401001924123715,0.0401001924123715,0.879684310644641,0.00245593864573201,0.850178733449864,0.49973380169729,NA
3,1,5,"yellow_flower","green_flower",0,0.737704918032787,0.865,76,3,25,1,2,1,"hotdog.jpg",4,0.000121710002007567,0.999453271276132,0,0,0.0399071975551061,0.880308474776289,0.0398921638343026,0.0398921638343026,0.0398921638343026,0,0.849926166927234,0.497804504509011,NA
3,2,5,"yellow_flower","yellow_flower",1,0.741935483870968,1.447,77,3,26,1,2,1,"jeans01.jpg",4,0,0,0.0110322256144246,0.999993968365368,0.0397812448388327,0.0397812448388327,0.0411633774797834,0.879274132842551,0.879274132842551,2.70944692348785e-05,0.850344349401387,0.500983897715758,NA
3,1,3,"green_flower","green_flower",1,0.746031746031746,0.486,78,3,27,1,2,1,"shovel01.jpg",2,0.000121710002007567,0.999878289997992,0,0,0.0399071975551061,0.880308474776289,0.0398921638343026,0.0398921638343026,0.880308474776289,0.000546728723868184,0.849926166927234,0.497804504509011,NA
3,1,1,NA,"green_flower",0,0.734375,NA,79,3,28,1,2,1,"skihelmet01.jpg",NA,0.000121710002007567,0.999878289997992,0,0,0.0398609969522411,0.880447041775776,0.0398459806359913,0.0398459806359913,NA,NA,0.84987008254858,0.497375691660589,NA
3,2,2,"yellow_flower","yellow_flower",1,0.738461538461539,1.019,80,3,29,1,2,1,"duck01.jpg",4,0,0,0.0110322256144246,0.999998657267798,0.0397789640790897,0.0397789640790897,0.0411610174788678,0.879281054362953,0.879281054362953,6.03163463164247e-06,0.850341549942978,0.500962551133469,NA
3,1,4,"green_flower","green_flower",1,0.742424242424242,0.726,81,3,30,1,2,1,"vacuumcleaner01.jpg",2,0.000121710002007567,0.999972905530765,0,0,0.0398609969522411,0.880447041775776,0.0398459806359913,0.0398459806359913,0.880447041775776,0.000121710002007558,0.84987008254858,0.497375691660589,NA
3,2,4,"yellow_flower","yellow_flower",1,0.746268656716418,1.626,82,3,31,1,2,1,"chime.jpg",4,0,0,0.0110322256144246,0.999999701087703,0.0397784563631652,0.0397784563631652,0.0411604921232049,0.879282595150465,0.879282595150465,1.34273220164793e-06,0.850340926758772,0.500957799146823,NA
3,2,2,"yellow_flower","yellow_flower",1,0.75,0.807,83,3,32,1,2,1,"chipmunk.jpg",4,0,0,0.0110322256144246,0.999999933457646,0.0397783433387573,0.0397783433387573,0.0411603751719535,0.879282938150532,0.879282938150532,2.98912297469478e-07,0.850340788029485,0.500956741287505,NA
3,2,4,"yellow_flower","yellow_flower",1,0.753623188405797,1.054,84,3,33,1,2,1,"butterfly4.jpg",4,0,0,0.0110322256144246,0.999999985186675,0.0397783181778692,0.0397783181778692,0.0411603491368925,0.879283014507369,0.879283014507369,6.65423540713306e-08,0.85034075714631,0.500956505792379,NA
3,1,2,"green_flower","green_flower",1,0.757142857142857,0.997,85,3,34,1,2,1,"jellyfish.jpg",2,0.000121710002007567,0.999993968365368,0,0,0.0398507182985608,0.880477869992529,0.0398357058544549,0.0398357058544549,0.880477869992529,2.70944692348785e-05,0.849857604294737,0.497280265102449,NA
3,2,5,"yellow_flower","yellow_flower",1,0.76056338028169,1.581,86,3,35,1,2,1,"apron.jpg",4,0,0,0.0110322256144246,0.999999996702332,0.0397783125766805,0.0397783125766805,0.0411603433410999,0.879283031505539,0.879283031505539,1.48133245669868e-08,0.850340750271255,0.500956453367648,NA
3,2,4,"yellow_flower","yellow_flower",1,0.763888888888889,0.584,87,3,36,1,2,1,"scalpel.jpg",4,0,0,0.0110322256144246,0.99999999926589,0.0397783113297721,0.0397783113297721,0.0411603420508698,0.879283035289586,0.879283035289586,3.29766791651309e-09,0.850340748740765,0.500956441697118,NA
3,1,2,"green_flower","yellow_flower",0,0.753424657534247,1.348,88,4,1,0,0,1,"monarchbutterfly.jpg",2,0.000121710002007567,0.222613633752767,0,0,0.0398484304280664,0.880484731880253,0.0398334188458403,0.0398334188458403,0.880484731880253,-0.999993968365368,0.849854826793857,0.497259023387043,NA
3,2,5,"yellow_flower","blue_flower",0,0.743243243243243,0.57,89,4,2,0,0,1,"baseballglove.jpg",4,0,0,0.0110322256144246,0.222614976321545,0.0397783110521916,0.0397783110521916,0.0411603417636452,0.879283036131972,0.879283036131972,-0.99999999926589,0.850340748400055,0.500956439099083,NA
3,2,2,"yellow_flower","blue_flower",0,0.733333333333333,2.284,90,4,3,0,0,1,"granolabar01.jpg",4,0,0,0.0110322256144246,0.0495574277190227,0.19893367584783,0.19893367584783,0.205845292814255,0.396287355490086,0.396287355490086,-0.222614976321545,0.99056808558237,1.33464487229087,NA
3,1,4,"green_flower","yellow_flower",0,0.723684210526316,0.547,91,4,4,0,0,1,"hockeypuck.jpg",2,0.000121710002007567,0.0495571288431058,0,0,0.2003788956145,0.399014285440006,0.200303409472747,0.200303409472747,0.399014285440006,-0.222613633752767,0.990227440934118,1.33286025120559,NA
3,1,5,"green_flower","yellow_flower",0,0.714285714285714,2.283,92,4,5,0,0,1,"bookshelf.jpg",2,0.000121710002007567,0.0110321590720706,0,0,0.240117956032043,0.279827044948738,0.24002749950961,0.24002749950961,0.279827044948738,-0.0495571288431058,0.999604753303248,1.38398074086659,NA
3,1,2,"yellow_flower","yellow_flower",1,0.717948717948718,0.547,93,4,6,0,0,1,"gps.jpg",4,0.000121710002007567,0.0110321590720706,0,0.777385023515031,0.24791750101804,0.256434286433539,0.247824106274211,0.247824106274211,0.247824106274211,1,0.999981598381649,1.38618457135383,NA
3,1,4,"yellow_flower","yellow_flower",1,0.721518987341772,1.054,94,4,7,0,0,1,"porcupine.jpg",4,0.000121710002007567,0.0110321590720706,0,0.950442572244597,0.0707906761623641,0.0732225698197993,0.0707640081093281,0.785222745908508,0.785222745908508,0.222614976484969,0.887060841765319,0.756146964557153,NA
3,2,3,"blue_flower","blue_flower",1,0.725,1.186,95,4,8,0,0,1,"giraffe.jpg",1,0.777385023515031,0,0.0110322256144246,0.0495574277190227,0.238063675269907,0.238063675269907,0.24633479844738,0.277537851012807,0.238063675269907,1,0.99964788448336,1.38422430808327,NA
3,2,2,"blue_flower","blue_flower",1,0.728395061728395,0.588,96,4,9,0,0,1,"toyanimal05.jpg",1,0.950442572244597,0,0.0110322256144246,0.0495574277190227,0.776136533951108,0.0699451617628782,0.0723752891141138,0.0815430151719005,0.776136533951108,0.222614976484969,0.890427629412742,0.77719831175738,NA
3,1,5,"yellow_flower","yellow_flower",1,0.731707317073171,1.796,97,4,10,0,0,1,"hulahoop.jpg",4,0.000121710002007567,0.0110321590720706,0,0.988967774385575,0.0454804158543587,0.0470428184312186,0.0454632826073289,0.862013483107094,0.862013483107094,0.0495574277554033,0.857285987133444,0.552867388123114,NA
3,2,4,"green_flower","blue_flower",0,0.72289156626506,1.875,98,4,11,0,0,1,"treadmill.jpg",2,0.950442572244597,0,0.0110322256144246,0.0495574277190227,0.855578418310386,0.0451238921277337,0.0466916460894095,0.052606043472471,0.0451238921277337,0,0.859845695822151,0.571253209026711,NA
3,1,4,"yellow_flower","yellow_flower",1,0.726190476190476,1.404,99,4,12,0,0,1,"volleyball.jpg",4,0.000121710002007567,0.0110321590720706,0,0.997544061354268,0.0410032455989077,0.0424118425824643,0.0409877989781441,0.875597112840484,0.875597112840484,0.0110322256144246,0.85182979169948,0.512261075728029,NA
3,2,3,"blue_flower","blue_flower",1,0.729411764705882,0.487,100,4,13,0,1,1,"whiteout.jpg",1,0.988967774385575,0,0.0110322256144246,0.0495574277190227,0.855578418310386,0.0451238921277337,0.0466916460894095,0.052606043472471,0.855578418310386,0.0495574277554033,0.859845695822151,0.571253209026711,NA
3,2,5,"blue_flower","blue_flower",1,0.732558139534884,0.832,101,4,14,0,1,1,"butterfly2.jpg",1,0.997544061354268,0,0.0110322256144246,0.0495574277190227,0.869699771486307,0.0407117370332316,0.042126198065092,0.0474622934153697,0.869699771486307,0.0110322256144246,0.854198940079085,0.529818141158928,NA
3,2,4,"blue_flower","blue_flower",1,0.735632183908046,1.245,102,4,15,0,1,1,"sandcastle.jpg",1,0.999453271276132,0,0.0110322256144246,0.0495574277190227,0.872679092306383,0.0397808612615761,0.0411629805757782,0.0463770658562629,0.872679092306383,0.00245593864573201,0.853000555260214,0.520856529064752,NA
3,1,3,"green_flower","yellow_flower",0,0.727272727272727,1.186,103,4,16,0,1,1,"ironingboard01.jpg",2,0.000121710002007567,0.00245592383240743,0,0.997544061354268,0.0400594934283764,0.0414356694062,0.0400444023351244,0.878460434830299,0.0414356694062,-0.0110321590720706,0.850673372535233,0.503490449323841,NA
3,2,4,"blue_flower","blue_flower",1,0.730337078651685,1.569,104,4,17,0,1,1,"cookingpot.jpg",1,0.999878289997992,0,0.0110322256144246,0.0495574277190227,0.873334364798365,0.0395761242347651,0.0409511303043034,0.0461383806625665,0.873334364798365,0.000546728723868184,0.852736662629292,0.518874847580472,NA
3,2,5,"blue_flower","blue_flower",1,0.733333333333333,0.598,105,4,18,0,1,1,"snowglobe.jpg",1,0.999972905530765,0,0.0110322256144246,0.0495574277190227,0.873479845325825,0.0395306694796587,0.0409040962999561,0.0460853888945607,0.873479845325825,0.000121710002007558,0.852678058886492,0.518434358004248,NA
3,1,4,"yellow_flower","yellow_flower",1,0.736263736263736,1.571,106,4,19,1,1,1,"jaguar.jpg",4,0.000121710002007567,0.00245592383240743,0,0.999453271276132,0.0401030312301734,0.0403938743093723,0.0400879237354901,0.879415170724964,0.879415170724964,0.00245593864573201,0.850287595047146,0.500563841635412,NA
3,2,3,"blue_flower","blue_flower",1,0.739130434782609,0.494,107,4,20,1,1,1,"escalator.jpg",1,0.999993968365368,0,0.0110322256144246,0.0495574277190227,0.873512212018737,0.0395205566478893,0.0408936321148054,0.0460735992185684,0.873512212018737,2.70944692348785e-05,0.852665019884473,0.518336331285613,NA
3,2,4,"blue_flower","blue_flower",1,0.741935483870968,0.581,108,4,21,1,1,1,"surfboard.jpg",1,0.999998657267798,0,0.0110322256144246,0.0495574277190227,0.873519416365605,0.0395183056811907,0.0408913029420437,0.0460709750111604,0.873519416365605,6.03163463164247e-06,0.852662117557618,0.51831451069865,NA
3,2,2,"blue_flower","blue_flower",1,0.74468085106383,0.735,109,4,22,1,1,1,"winniethepooh.jpg",1,0.999999701087703,0,0.0110322256144246,0.0495574277190227,0.873521020113357,0.0395178045972133,0.0408907844487438,0.0460703908406854,0.873521020113357,1.34273220164793e-06,0.852661471473552,0.518309653189914,NA
3,1,4,"green_flower","yellow_flower",0,0.736842105263158,1.736,110,4,23,1,1,1,"lantern03.jpg",2,0.000121710002007567,0.000546725426200254,0,0.999453271276132,0.0398950512459777,0.0401843859718886,0.0398800221008957,0.880040540681238,0.0401843859718886,-0.00245592383240743,0.850034583944394,0.49863240977398,NA
3,1,5,"yellow_flower","yellow_flower",1,0.739583333333333,0.499,111,4,24,1,1,1,"polarbear.jpg",4,0.000121710002007567,0.000546725426200254,0,0.999878289997992,0.0399045009513894,0.0399570401102144,0.0398894682464424,0.880248990691954,0.880248990691954,0.000546728723868184,0.849950240765122,0.497988499865608,NA
3,1,3,"yellow_flower","yellow_flower",1,0.742268041237113,2.04,112,4,25,1,2,1,"microwave.jpg",4,0.000121710002007567,0.000546725426200254,0,0.999972905530765,0.0398583065884214,0.0399107849267146,0.0398432912856775,0.880387617199187,0.880387617199187,0.000121710002007558,0.849894134417281,0.497559581142174,NA
3,1,4,"yellow_flower","yellow_flower",1,0.744897959183674,0.432,113,4,26,1,2,1,"dalmatian.jpg",4,0.000121710002007567,0.000546725426200254,0,0.999993968365368,0.039848029322003,0.0399004941290172,0.0398330178908803,0.8804184586581,0.8804184586581,2.70944692348785e-05,0.849881651273791,0.497464131009313,NA
3,1,2,"yellow_flower","yellow_flower",1,0.747474747474748,0.702,114,4,27,1,2,1,"trafficlight.jpg",4,0.000121710002007567,0.000546725426200254,0,0.999998657267798,0.0398457417602431,0.0398982035554023,0.0398307311908839,0.880425323493471,0.880425323493471,6.03163463164247e-06,0.849878872684453,0.497442884045557,NA
3,1,3,"yellow_flower","yellow_flower",1,0.75,0.472,115,4,28,1,2,1,"birdfeeder.jpg",4,0.000121710002007567,0.000546725426200254,0,0.999999701087703,0.0398452325301799,0.0398976936548755,0.0398302221526564,0.880426851662288,0.880426851662288,1.34273220164793e-06,0.849878254145967,0.497438154235752,NA
3,2,5,"blue_flower","blue_flower",1,0.752475247524752,1.547,116,4,29,1,2,1,"golfball.jpg",1,0.999999933457646,0,0.0110322256144246,0.0495574277190227,0.873521377129259,0.0395176930491549,0.0408906690251352,0.0460702607964509,0.873521377129259,2.98912297469478e-07,0.852661327646423,0.518308571839721,NA
3,1,3,"yellow_flower","yellow_flower",1,0.754901960784314,0.855,117,4,30,1,2,1,"butterfly2.jpg",4,0.000121710002007567,0.000546725426200254,0,0.999999933457646,0.0398451191687067,0.039897580144148,0.0398301088338884,0.880427191853257,0.880427191853257,2.98912297469478e-07,0.849878116450884,0.497437101313343,NA
3,1,3,"yellow_flower","yellow_flower",1,0.757281553398058,0.53,118,4,31,1,2,1,"handbrush02.jpg",4,0.000121710002007567,0.000546725426200254,0,0.999999985186675,0.039845093932783,0.0398975548749981,0.0398300836074714,0.880427267584748,0.880427267584748,6.65423540713306e-08,0.849878085797939,0.497436866917249,NA
3,2,4,"blue_flower","blue_flower",1,0.759615384615385,1.184,119,4,32,1,2,1,"dogsled.jpg",1,0.999999985186675,0,0.0110322256144246,0.0495574277190227,0.873521456606228,0.0395176682169232,0.0408906433301492,0.0460702318466995,0.873521456606228,6.65423540713306e-08,0.852661295628392,0.518308331115171,NA
3,1,3,"blue_flower","yellow_flower",0,0.752380952380952,1.677,120,4,33,1,2,1,"seaturtle.jpg",1,2.70944692349e-05,0.000546725426200254,0,0.999999985186675,0.0398450883148903,0.0398975492497087,0.0398300779916951,0.880427284443706,0.0398450883148903,-0.000121710002007567,0.849878078974136,0.497436814737178,NA
3,2,4,"blue_flower","blue_flower",1,0.754716981132076,0.805,121,4,34,1,2,1,"canoepaddle02.jpg",1,0.999999996702332,0,0.0110322256144246,0.0495574277190227,0.873521474298986,0.0395176626888983,0.0408906376100623,0.0460702254020533,0.873521474298986,1.48133245669868e-08,0.852661288500702,0.518308277526291,NA
3,2,3,"blue_flower","blue_flower",1,0.757009345794392,0.435,122,4,35,1,2,1,"trophy01.jpg",1,0.99999999926589,0,0.0110322256144246,0.0495574277190227,0.873521478237659,0.0395176614582773,0.0408906363366855,0.0460702239673787,0.873521478237659,3.29766791651309e-09,0.852661286913971,0.518308265596604,NA
3,2,2,"blue_flower","blue_flower",1,0.759259259259259,1.054,123,4,36,1,2,1,"donut.jpg",1,0.999999999836576,0,0.0110322256144246,0.0495574277190227,0.873521479114466,0.0395176611843226,0.0408906360532127,0.0460702236479986,0.873521479114466,7.34110217059936e-10,0.852661286560741,0.518308262940878,NA
3,1,1,NA,"red_flower",0,0.752293577981651,NA,124,5,1,0,0,1,"artichoke01b.jpg",NA,2.70944692349e-05,0.000546725426200254,0,0.999999985186675,0.0398338838582108,0.0398980148312068,0.0398305427858423,0.88043755852474,NA,NA,0.849873920349291,0.497405010184195,NA
3,1,5,"yellow_flower","red_flower",0,0.745454545454545,1.129,125,5,2,0,0,1,"lintroller.jpg",4,2.70944692349e-05,0.000546725426200254,0,0.222614973187301,0.0398338838582108,0.0398980148312068,0.0398305427858423,0.88043755852474,0.88043755852474,-0.999999985186675,0.849873920349291,0.497405010184195,NA
3,1,2,"red_flower","red_flower",1,0.747747747747748,0.503,126,5,3,0,0,1,"fridge.jpg",3,2.70944692349e-05,0.000546725426200254,0.777385023515031,0.222614973187301,0.200263680969865,0.200586097552744,0.200246883826677,0.398903337650713,0.200246883826677,1,0.99024182312635,1.33293649991701,NA
3,1,4,"red_flower","red_flower",1,0.75,0.449,127,5,4,0,0,1,"shower.jpg",3,2.70944692349e-05,0.000546725426200254,0.950442572244597,0.222614973187301,0.0662737625907286,0.0663804607197431,0.73533569394222,0.132010082747309,0.73533569394222,0.222614976484969,0.904447033497349,0.853278705417679,NA
3,1,2,"red_flower","red_flower",1,0.752212389380531,0.619,128,5,5,0,0,1,"zebra.jpg",3,2.70944692349e-05,0.000546725426200254,0.988967774385575,0.222614973187301,0.0435681205633645,0.0436382635093369,0.826010687421606,0.086782928505693,0.826010687421606,0.0495574277554033,0.871174387190187,0.643202244706997,NA
3,1,4,"red_flower","red_flower",1,0.754385964912281,0.467,129,5,6,0,0,1,"jokercard.jpg",3,2.70944692349e-05,0.000546725426200254,0.997544061354268,0.222614973187301,0.0394413635010206,0.0395048625318109,0.842490893938915,0.0785628800282541,0.842490893938915,0.0110322256144246,0.864782771193633,0.599414083697246,NA
3,1,2,"red_flower","red_flower",1,0.756521739130435,0.843,130,5,7,0,0,1,"recyclingbin.jpg",3,2.70944692349e-05,0.000546725426200254,0.999453271276132,0.222614973187301,0.0385671235400067,0.0386292150791367,0.845982171686921,0.0768214896939353,0.845982171686921,0.00245593864573201,0.863416934176873,0.58988053727422,NA
3,2,2,"blue_flower","green_flower",0,0.75,1.145,131,5,8,0,0,1,"aquarium.jpg",1,0.222614976448588,0,0.0110322256144246,0.0495574277190227,0.873521479309657,0.0395176611233362,0.0408906359901074,0.0460702235768999,0.873521479309657,-0.999999999836576,0.852661286482107,0.518308262349673,NA
3,2,3,"green_flower","green_flower",1,0.752136752136752,0.469,132,5,9,0,0,1,"skiboot01a.jpg",2,0.222614976448588,0.777385023515031,0.0110322256144246,0.0495574277190227,0.383632882436135,0.192581212576722,0.199272123859526,0.224513781127617,0.192581212576722,1,0.991939654043775,1.3415992493272,NA
3,2,5,"green_flower","green_flower",1,0.754237288135593,0.529,133,5,10,0,0,1,"cuttlefish.jpg",2,0.222614976448588,0.950442572244597,0.0110322256144246,0.0495574277190227,0.130293759891435,0.725775254320449,0.0676790636254483,0.0762519221626674,0.725775254320449,0.222614976484969,0.907957064706993,0.876664512592177,NA
3,2,2,"green_flower","green_flower",1,0.756302521008403,0.536,134,5,11,0,0,1,"stool01.jpg",2,0.222614976448588,0.988967774385575,0.0110322256144246,0.0495574277190227,0.0860378671646872,0.818919092812224,0.0446910296463056,0.0503520103767833,0.818919092812224,0.0495574277554033,0.873982347420953,0.664030404717531,NA
3,1,4,"blue_flower","red_flower",0,0.75,1.964,135,5,12,0,0,1,"pumpkin.jpg",1,6.03163463159998e-06,0.000546725426200254,0.999453271276132,0.222614973187301,0.0383746750614034,0.0384364567661163,0.846750714788299,0.0764381533841816,0.0383746750614034,-2.70944692349e-05,0.863115731148969,0.587769392186124,NA
3,2,1,NA,"green_flower",0,0.743801652892562,NA,136,5,13,0,1,1,"mirror02.jpg",NA,0.222614976448588,0.988967774385575,0.0110322256144246,0.0495574277190227,0.0779517811614798,0.835937596842042,0.0404908382515073,0.045619783744971,NA,NA,0.867405799678049,0.619396227004207,NA
3,2,4,"blue_flower","green_flower",0,0.737704918032787,0.979,137,5,14,0,1,1,"crab01.jpg",1,0.0495574277473044,0.988967774385575,0.0110322256144246,0.0495574277190227,0.0779517811614798,0.835937596842042,0.0404908382515073,0.045619783744971,0.0779517811614798,-0.222614976448588,0.867405799678049,0.619396227004207,NA
3,2,5,"green_flower","green_flower",1,0.739837398373984,0.478,138,5,15,0,1,1,"butterfly3.jpg",2,0.0495574277473044,0.997544061354268,0.0110322256144246,0.0495574277190227,0.0471440448862427,0.863868180622688,0.0418437296089539,0.0471440448821151,0.863868180622688,0.0110322256144246,0.856539791180987,0.547225871327722,NA
3,1,3,"green_flower","red_flower",0,0.733870967741935,0.511,139,5,16,0,1,1,"fishskeleton.jpg",2,6.03163463159998e-06,0.000121709267897304,0.999453271276132,0.222614973187301,0.0383722688978502,0.0384365529412054,0.846752833514434,0.0764383446465101,0.0384365529412054,-0.000546725426200254,0.863114876909698,0.587762704800231,NA
3,2,1,NA,"green_flower",0,0.728,NA,140,5,17,0,1,1,"jackrabbit.jpg",NA,0.0495574277473044,0.997544061354268,0.0110322256144246,0.0495574277190227,0.0460731578844075,0.866960443839795,0.0408932403954242,0.0460731578803736,NA,NA,0.855300749476504,0.538078634452203,NA
3,1,5,"red_flower","red_flower",1,0.73015873015873,1.662,141,5,18,0,1,1,"dartboard.jpg",3,6.03163463159998e-06,0.000121709267897304,0.999878289997992,0.222614973187301,0.0383742083292235,0.0383879530963135,0.846795630540982,0.0764422080334816,0.846795630540982,0.000546728723868184,0.863097622654805,0.587627674574148,NA
3,2,5,"green_flower","green_flower",1,0.732283464566929,0.868,142,5,19,1,1,1,"brownsugar.jpg",2,0.0495574277473044,0.999453271276132,0.0110322256144246,0.0495574277190227,0.0460731578844075,0.866960443839795,0.0408932403954242,0.0460731578803736,0.866960443839795,0.00245593864573201,0.855300749476504,0.538078634452203,NA
3,1,4,"red_flower","red_flower",1,0.734375,1.268,143,5,20,1,1,1,"cremebrulee.jpg",3,6.03163463159998e-06,0.000121709267897304,0.999972905530765,0.222614973187301,0.0383314718532817,0.0383452013131398,0.846966250734456,0.0763570760991227,0.846966250734456,0.000121710002007558,0.86303072667341,0.587158334806004,NA
3,2,3,"red_flower","green_flower",0,0.728682170542636,0.574,144,5,21,1,1,1,"doghouse.jpg",3,0.0495574277473044,0.999453271276132,0.00245593864573201,0.0495574277190227,0.0458375826947475,0.867640684138351,0.0406841504761672,0.0458375826907342,0.0406841504761672,-0.0110322256144246,0.855027829803903,0.536055344417373,NA
3,1,5,"red_flower","red_flower",1,0.730769230769231,0.58,145,5,22,1,1,1,"filingcabinet.jpg",3,6.03163463159998e-06,0.000121709267897304,0.999993968365368,0.222614973187301,0.0383219633820265,0.0383356894361668,0.847004212151944,0.0763381350298624,0.847004212151944,2.70944692348785e-05,0.863015841643595,0.587053880504199,NA
3,2,5,"green_flower","green_flower",1,0.732824427480916,0.561,146,5,23,1,1,1,"hockeystick.jpg",2,0.0495574277473044,0.999878289997992,0.00245593864573201,0.0495574277190227,0.0458864960743489,0.868566545312652,0.0396604625426675,0.0458864960703313,0.868566545312652,0.000546728723868184,0.854654119737514,0.533197063920134,NA
3,2,2,"green_flower","green_flower",1,0.734848484848485,0.897,147,5,24,1,1,1,"bolt01a.jpg",2,0.0495574277473044,0.999972905530765,0.00245593864573201,0.0495574277190227,0.0458340809972762,0.86871667869059,0.0396151593188706,0.0458340809932633,0.86871667869059,0.000121710002007558,0.854593834561515,0.53274886600622,NA
3,2,2,"green_flower","green_flower",1,0.736842105263158,0.734,148,5,25,1,2,1,"ipad02.jpg",2,0.0495574277473044,0.999993968365368,0.00245593864573201,0.0495574277190227,0.0458224195348286,0.868750080811635,0.03960508012272,0.0458224195308166,0.868750080811635,2.70944692348785e-05,0.854580421300497,0.532649122729556,NA
3,2,3,"green_flower","green_flower",1,0.738805970149254,0.447,149,5,26,1,2,1,"cannon.jpg",2,0.0495574277473044,0.999998657267798,0.00245593864573201,0.0495574277190227,0.0458198238614312,0.868757515642163,0.0396028366389861,0.0458198238574195,0.868757515642163,6.03163463164247e-06,0.85457743566063,0.532626919983041,NA
3,1,4,"green_flower","red_flower",0,0.733333333333333,0.928,150,5,27,1,2,1,"bathtub.jpg",2,6.03163463159998e-06,2.70943058109612e-05,0.999993968365368,0.222614973187301,0.0383198469169418,0.0383335722130126,0.847012661881929,0.0763339189881162,0.0383335722130126,-0.000121709267897304,0.863012528360823,0.587030628788612,NA
3,2,5,"green_flower","green_flower",1,0.735294117647059,0.501,151,5,28,1,2,1,"cactus.jpg",2,0.0495574277473044,0.999999701087703,0.00245593864573201,0.0495574277190227,0.0458192460426458,0.86875917069813,0.0396023372205895,0.0458192460386342,0.86875917069813,1.34273220164793e-06,0.854576771029971,0.532621977398477,NA
3,1,5,"red_flower","red_flower",1,0.737226277372263,1.376,152,5,29,1,2,1,"lionstatue.jpg",3,6.03163463159998e-06,2.70943058109612e-05,0.999998657267798,0.222614973187301,0.0383202771214392,0.0383227758958172,0.847022171018468,0.0763347759642758,0.847022171018468,6.03163463164247e-06,0.863008693945816,0.587000602601764,NA
3,2,4,"green_flower","green_flower",1,0.739130434782609,0.953,153,5,30,1,2,1,"locomotive.jpg",2,0.0495574277473044,0.999999933457646,0.00245593864573201,0.0495574277190227,0.0458191174123723,0.868759539135964,0.0396022260433025,0.0458191174083607,0.868759539135964,2.98912297469478e-07,0.854576623074099,0.532620877109062,NA
3,1,3,"red_flower","red_flower",1,0.741007194244604,1.387,154,5,31,1,2,1,"stepladder.jpg",3,6.03163463159998e-06,2.70943058109612e-05,0.999999701087703,0.222614973187301,0.0383198059670695,0.0383223047107246,0.847024051907073,0.0763338374151327,0.847024051907073,1.34273220164793e-06,0.863007956411197,0.586995426662896,NA
3,1,5,"red_flower","red_flower",1,0.742857142857143,0.467,155,5,32,1,2,1,"butterfly2.jpg",3,6.03163463159998e-06,2.70943058109612e-05,0.999999933457646,0.222614973187301,0.0383197010816965,0.0383221998185123,0.847024470618467,0.076333628481324,0.847024470618467,2.98912297469478e-07,0.863007792225799,0.586994274424767,NA
3,2,2,"green_flower","green_flower",1,0.74468085106383,1.294,156,5,33,1,2,1,"battleaxe.jpg",2,0.0495574277473044,0.999999985186675,0.00245593864573201,0.0495574277190227,0.0458190887773887,0.868759621155625,0.0396022012936094,0.0458190887733771,0.868759621155625,6.65423540713306e-08,0.854576590136949,0.532620632168355,NA
3,1,3,"red_flower","red_flower",1,0.746478873239437,0.802,157,5,34,1,2,1,"crown.jpg",3,6.03163463159998e-06,2.70943058109612e-05,0.999999985186675,0.222614973187301,0.0383196777326737,0.038322176467967,0.847024563829766,0.0763335819695929,0.847024563829766,6.65423540713306e-08,0.863007755675713,0.586994017919471,NA
3,1,2,"green_flower","red_flower",0,0.741258741258741,0.423,158,5,35,1,2,1,"snowshovel.jpg",2,6.03163463159998e-06,6.03159825098368e-06,0.999999985186675,0.222614973187301,0.0383196725348331,0.0383221712697874,0.847024584579991,0.0763335716153881,0.0383221712697874,-2.70943058109612e-05,0.863007747539118,0.586993960817559,NA
3,2,3,"green_flower","green_flower",1,0.743055555555556,0.533,159,5,36,1,2,1,"lightswitch01.jpg",2,0.0495574277473044,0.999999996702332,0.00245593864573201,0.0495574277190227,0.0458190824028146,0.868759639414424,0.0396021957839588,0.045819082398803,0.868759639414424,1.48133245669868e-08,0.854576582804648,0.532620577640894,NA
4,1,2,"blue_flower","blue_flower",1,1,0.72144,1,0,1,0,0,1,"firehydrant.jpg",1,0.782384580971095,0,0,0,0.25,0.25,0.25,0.25,0.25,1,1,1.38629436111989,NA
4,1,4,"blue_flower","blue_flower",1,1,0.49346,2,0,2,0,0,1,"tennisracket.jpg",1,0.952643529400874,0,0,0,0.887413760932165,0.0375287463559449,0.0375287463559449,0.0375287463559449,0.887413760932165,0.217615419028905,0.847044058215918,0.475577190328168,NA
4,1,4,"blue_flower","blue_flower",1,1,1.262975,3,0,3,0,0,1,"tire.jpg",1,0.989694501806841,0,0,0,0.940079955123071,0.0199733482923098,0.0199733482923098,0.0199733482923098,0.940079955123071,0.0473564705991261,0.825321496035728,0.292576364097822,NA
4,2,4,"red_flower","red_flower",1,1,0.490835,4,0,4,0,0,1,"flipflop01b.jpg",3,0,0,0.782384580971095,0,0.25,0.25,0.25,0.25,0.25,1,1,1.38629436111989,NA
4,2,5,"red_flower","red_flower",1,1,0.64181,5,0,5,0,0,1,"shed02.jpg",3,0,0,0.952643529400874,0,0.0375287463559449,0.0375287463559449,0.887413760932165,0.0375287463559449,0.887413760932165,0.217615419028905,0.847044058215918,0.475577190328168,NA
4,2,3,"red_flower","red_flower",1,1,0.58141,6,0,6,0,1,1,"wheat.jpg",3,0,0,0.989694501806841,0,0.0199733482923098,0.0199733482923098,0.940079955123071,0.0199733482923098,0.940079955123071,0.0473564705991261,0.825321496035728,0.292576364097822,NA
4,2,5,"red_flower","red_flower",1,1,0.589365,7,0,7,0,1,1,"marble.jpg",3,0,0,0.997757364692394,0,0.0173392293895087,0.0173392293895087,0.947982311831474,0.0173392293895087,0.947982311831474,0.0103054981931588,0.822014105443642,0.261561156467928,NA
4,2,5,"red_flower","red_flower",1,1,0.4463,8,0,8,0,1,1,"corn02.jpg",3,0,0,0.999511967977806,0,0.0168111588044442,0.0168111588044442,0.949566523586667,0.0168111588044442,0.949566523586667,0.00224263530760593,0.821349742957606,0.25519645261969,NA
4,1,3,"blue_flower","blue_flower",1,1,0.320475,9,0,9,1,1,1,"skunk.jpg",1,0.997757364692394,0,0,0,0.947982311831474,0.0173392293895087,0.0173392293895087,0.0173392293895087,0.947982311831474,0.0103054981931588,0.822014105443642,0.261561156467928,NA
4,1,5,"blue_flower","blue_flower",1,1,0.38845,10,0,10,1,1,1,"motorcycle.jpg",1,0.999511967977806,0,0,0,0.949566523586667,0.0168111588044442,0.0168111588044442,0.0168111588044442,0.949566523586667,0.00224263530760593,0.821349742957606,0.25519645261969,NA
4,1,4,"blue_flower","blue_flower",1,1,0.841545,11,0,11,1,2,1,"foosballtable.jpg",1,0.999893796706991,0,0,0,0.949905169250183,0.0166982769166058,0.0166982769166058,0.0166982769166058,0.949905169250183,0.000488032022193718,0.821207671040097,0.253829168757398,NA
4,2,4,"red_flower","red_flower",1,1,0.506845,12,0,12,1,2,1,"toucan.jpg",3,0,0,0.999893796706991,0,0.0166982769166058,0.0166982769166058,0.949905169250183,0.0166982769166058,0.949905169250183,0.000488032022193718,0.821207671040097,0.253829168757398,NA
4,2,3,"red_flower","red_flower",1,1,0.46937,13,0,13,1,2,1,"shelf.jpg",3,0,0,0.99997688852589,0,0.0166738073750259,0.0166738073750259,0.949978577874922,0.0166738073750259,0.949978577874922,0.000106203293009255,0.821176871357031,0.253532463699282,NA
4,1,2,"blue_flower","blue_flower",1,1,0.70555,14,0,14,1,2,1,"toolbox02.jpg",1,0.99997688852589,0,0,0,0.949978577874922,0.0166738073750259,0.0166738073750259,0.0166738073750259,0.949978577874922,0.000106203293009255,0.821176871357031,0.253532463699282,NA
4,1,2,"blue_flower","blue_flower",1,1,0.77192,15,0,15,1,2,1,"birdfeeder.jpg",1,0.999994970586877,0,0,0,0.949994539216787,0.0166684869277378,0.0166684869277378,0.0166684869277378,0.949994539216787,2.31114741104932e-05,0.821170174416328,0.253467935691887,NA
4,1,3,"blue_flower","blue_flower",1,1,0.51924,16,2,1,0,0,1,"cashregister01.jpg",1,0.999998905522156,0,0,0,0.949998012011582,0.0166673293294725,0.0166673293294725,0.0166673293294725,0.949998012011582,5.02941312297001e-06,0.821168717321246,0.25345389527677,NA
4,1,3,"blue_flower","blue_flower",1,1,0.73091,17,2,2,0,0,1,"file.jpg",1,0.999999761824745,0,0,0,0.949998767715005,0.0166670774283315,0.0166670774283315,0.0166670774283315,0.949998767715005,1.09447784424344e-06,0.821168400247318,0.253450839954704,NA
4,2,2,"red_flower","red_flower",1,1,0.92822,18,2,3,0,0,1,"scalpel.jpg",3,0,0,0.999994970586877,0,0.0166684869277378,0.0166684869277378,0.949994539216787,0.0166684869277378,0.949994539216787,2.31114741104932e-05,0.821170174416328,0.253467935691887,NA
4,1,4,"blue_flower","blue_flower",1,1,0.722665,19,2,4,0,0,1,"car.jpg",1,0.999999948169392,0,0,0,0.949998932166289,0.016667022611237,0.016667022611237,0.016667022611237,0.949998932166289,2.38175254740902e-07,0.82116833124773,0.253450175073715,NA
4,1,3,"blue_flower","blue_flower",1,1,0.41465,20,2,5,0,0,1,"forklift.jpg",1,0.99999998872086,0,0,0,0.949998967953356,0.0166670106822147,0.0166670106822147,0.0166670106822147,0.949998967953356,5.18306079166919e-08,0.821168316232384,0.253450030385559,NA
4,1,4,"blue_flower","blue_flower",1,1,0.915695,21,2,6,0,0,1,"snowglobe.jpg",1,0.999999997545485,0,0,0,0.94999897574117,0.0166670080862765,0.0166670080862765,0.0166670080862765,0.94999897574117,1.12791395112666e-08,0.821168312964815,0.253449998899195,NA
4,2,5,"red_flower","red_flower",1,1,0.370545,22,2,7,0,0,1,"rollerblade.jpg",3,0,0,0.999998905522156,0,0.0166673293294725,0.0166673293294725,0.949998012011582,0.0166673293294725,0.949998012011582,5.02941312297001e-06,0.821168717321246,0.25345389527677,NA
4,2,4,"red_flower","red_flower",1,1,0.446875,23,2,8,0,0,1,"treestump.jpg",3,0,0,0.999999761824745,0,0.0166670774283315,0.0166670774283315,0.949998767715005,0.0166670774283315,0.949998767715005,1.09447784424344e-06,0.821168400247318,0.253450839954704,NA
4,1,5,"blue_flower","blue_flower",1,1,0.543155,24,2,9,0,0,1,"tricycle.jpg",1,0.99999999946586,0,0,0,0.949998977435919,0.0166670075213604,0.0166670075213604,0.0166670075213604,0.949998977435919,2.45451470259894e-09,0.821168312253741,0.253449992047277,NA
4,1,2,"blue_flower","blue_flower",1,1,0.674425,25,2,10,0,0,1,"beaver.jpg",1,0.999999999883763,0,0,0,0.949998977804722,0.016667007398426,0.016667007398426,0.016667007398426,0.949998977804722,5.34140287555829e-10,0.821168312099,0.253449990556194,NA
4,2,2,"red_flower","red_flower",1,1,1.250975,26,2,11,0,0,1,"fridge.jpg",3,0,0,0.999999948169392,0,0.016667022611237,0.016667022611237,0.949998932166289,0.016667022611237,0.949998932166289,2.38175254740902e-07,0.82116833124773,0.253450175073715,NA
4,2,3,"red_flower","red_flower",1,1,0.5513,27,2,12,0,0,1,"moon.jpg",3,0,0,0.99999998872086,0,0.0166670106822147,0.0166670106822147,0.949998967953356,0.0166670106822147,0.949998967953356,5.18306079166919e-08,0.821168316232384,0.253450030385559,NA
4,1,3,"blue_flower","blue_flower",1,1,0.84304,28,2,13,0,1,1,"bowlingpin.jpg",1,0.999999999974705,0,0,0,0.949998977884979,0.0166670073716735,0.0166670073716735,0.0166670073716735,0.949998977884979,1.16237131031482e-10,0.821168312065327,0.253449990231711,NA
4,1,4,"blue_flower","blue_flower",1,1,0.5805,29,2,14,0,1,1,"dolphin01.jpg",1,0.999999999994495,0,0,0,0.949998977902445,0.0166670073658518,0.0166670073658518,0.0166670073658518,0.949998977902445,2.52949883261522e-11,0.821168312057999,0.253449990161099,NA
4,1,5,"blue_flower","blue_flower",1,1,0.615445,30,2,15,0,1,1,"butterfly5.jpg",1,0.999999999998802,0,0,0,0.949998977906245,0.0166670073645849,0.0166670073645849,0.0166670073645849,0.949998977906245,5.50459677839399e-12,0.821168312056404,0.253449990145732,NA
4,2,3,"red_flower","red_flower",1,1,0.73685,31,2,16,0,1,1,"sandcastle.jpg",3,0,0,0.999999997545485,0,0.0166670080862765,0.0166670080862765,0.94999897574117,0.0166670080862765,0.94999897574117,1.12791395112666e-08,0.821168312964815,0.253449998899195,NA
4,2,2,"red_flower","red_flower",1,1,0.53238,32,2,17,0,1,1,"mirror02.jpg",3,0,0,0.99999999946586,0,0.0166670075213604,0.0166670075213604,0.949998977435919,0.0166670075213604,0.949998977435919,2.45451470259894e-09,0.821168312253741,0.253449992047277,NA
4,2,5,"red_flower","red_flower",1,1,0.86076,33,2,18,0,1,1,"bacon.jpg",3,0,0,0.999999999883763,0,0.016667007398426,0.016667007398426,0.949998977804722,0.016667007398426,0.949998977804722,5.34140287555829e-10,0.821168312099,0.253449990556194,NA
4,2,3,"red_flower","red_flower",1,1,0.37242,34,2,19,1,1,1,"triangle.jpg",3,0,0,0.999999999974705,0,0.0166670073716735,0.0166670073716735,0.949998977884979,0.0166670073716735,0.949998977884979,1.16237131031482e-10,0.821168312065327,0.253449990231711,NA
4,2,3,"red_flower","red_flower",1,1,1.11447,35,2,20,1,1,1,"jokercard.jpg",3,0,0,0.999999999994495,0,0.0166670073658518,0.0166670073658518,0.949998977902445,0.0166670073658518,0.949998977902445,2.52949883261522e-11,0.821168312057999,0.253449990161099,NA
4,2,4,"red_flower","red_flower",1,1,0.5596,36,2,21,1,1,1,"bookshelf.jpg",3,0,0,0.999999999998802,0,0.0166670073645849,0.0166670073645849,0.949998977906245,0.0166670073645849,0.949998977906245,5.50459677839399e-12,0.821168312056404,0.253449990145732,NA
4,2,3,"red_flower","red_flower",1,1,0.671855,37,2,22,1,1,1,"jeans01.jpg",3,0,0,0.999999999999739,0,0.0166670073643092,0.0166670073643092,0.949998977907072,0.0166670073643092,0.949998977907072,1.19793064357054e-12,0.821168312056057,0.253449990142388,NA
4,1,3,"blue_flower","blue_flower",1,1,0.456455,38,2,23,1,1,1,"dogsled.jpg",1,0.999999999999739,0,0,0,0.949998977907072,0.0166670073643092,0.0166670073643092,0.0166670073643092,0.949998977907072,1.19793064357054e-12,0.821168312056057,0.253449990142388,NA
4,2,5,"red_flower","red_flower",1,1,0.65525,39,2,24,1,1,1,"artichoke01b.jpg",3,0,0,0.999999999999943,0,0.0166670073642492,0.0166670073642492,0.949998977907252,0.0166670073642492,0.949998977907252,2.60680366181987e-13,0.821168312055981,0.253449990141661,NA
4,1,4,"blue_flower","blue_flower",1,1,0.432845,40,2,25,1,2,1,"gong.jpg",1,0.999999999999943,0,0,0,0.949998977907252,0.0166670073642492,0.0166670073642492,0.0166670073642492,0.949998977907252,2.60680366181987e-13,0.821168312055981,0.253449990141661,NA
4,2,5,"red_flower","red_flower",1,1,0.658255,41,2,26,1,2,1,"exitsign.jpg",3,0,0,0.999999999999988,0,0.0166670073642361,0.0166670073642361,0.949998977907292,0.0166670073642361,0.949998977907292,5.67323965583455e-14,0.821168312055965,0.253449990141502,NA
4,1,3,"blue_flower","blue_flower",1,1,0.37628,42,2,27,1,2,1,"zebra.jpg",1,0.999999999999988,0,0,0,0.949998977907292,0.0166670073642361,0.0166670073642361,0.0166670073642361,0.949998977907292,5.67323965583455e-14,0.821168312055965,0.253449990141502,NA
4,2,3,"red_flower","red_flower",1,1,0.88853,43,2,28,1,2,1,"apron.jpg",3,0,0,0.999999999999997,0,0.0166670073642333,0.0166670073642333,0.9499989779073,0.0166670073642333,0.9499989779073,1.23234755733392e-14,0.821168312055961,0.253449990141468,NA
4,1,4,"blue_flower","blue_flower",1,1,0.55361,44,2,29,1,2,1,"dalmatian.jpg",1,0.999999999999997,0,0,0,0.9499989779073,0.0166670073642333,0.0166670073642333,0.0166670073642333,0.9499989779073,1.23234755733392e-14,0.821168312055961,0.253449990141468,NA
4,2,4,"red_flower","red_flower",1,1,0.71238,45,2,30,1,2,1,"butterfly2.jpg",3,0,0,0.999999999999999,0,0.0166670073642327,0.0166670073642327,0.949998977907302,0.0166670073642327,0.949998977907302,2.66453525910038e-15,0.821168312055961,0.25344999014146,NA
4,1,3,"blue_flower","blue_flower",1,1,0.517955,46,2,31,1,2,1,"whiteout.jpg",1,0.999999999999999,0,0,0,0.949998977907302,0.0166670073642327,0.0166670073642327,0.0166670073642327,0.949998977907302,2.66453525910038e-15,0.821168312055961,0.25344999014146,NA
4,1,2,"blue_flower","blue_flower",1,1,0.63592,47,2,32,1,2,1,"star.jpg",1,1,0,0,0,0.949998977907302,0.0166670073642326,0.0166670073642326,0.0166670073642326,0.949998977907302,5.55111512312578e-16,0.82116831205596,0.253449990141459,NA
4,1,4,"blue_flower","blue_flower",1,1,1.11477,48,2,33,1,2,1,"golfball.jpg",1,1,0,0,0,0.949998977907302,0.0166670073642325,0.0166670073642325,0.0166670073642325,0.949998977907302,1.11022302462516e-16,0.82116831205596,0.253449990141458,NA
4,2,5,"red_flower","red_flower",1,1,0.46461,49,2,34,1,2,1,"skateboard.jpg",3,0,0,1,0,0.0166670073642326,0.0166670073642326,0.949998977907302,0.0166670073642326,0.949998977907302,5.55111512312578e-16,0.82116831205596,0.253449990141459,NA
4,2,4,"red_flower","red_flower",1,1,0.456285,50,2,35,1,2,1,"crab01.jpg",3,0,0,1,0,0.0166670073642325,0.0166670073642325,0.949998977907302,0.0166670073642325,0.949998977907302,1.11022302462516e-16,0.82116831205596,0.253449990141458,NA
4,1,5,"blue_flower","blue_flower",1,1,0.83676,51,2,36,1,2,1,"snowman.jpg",1,1,0,0,0,0.949998977907302,0.0166670073642325,0.0166670073642325,0.0166670073642325,0.949998977907302,0,0.82116831205596,0.253449990141458,NA
4,1,5,"blue_flower","green_flower",0,0.972972972972973,0.4463,52,3,1,0,0,1,"cork02.jpg",1,0.217615419028905,0,0,0,0.949998977907302,0.0166670073642325,0.0166670073642325,0.0166670073642325,0.949998977907302,-1,0.82116831205596,0.253449990141458,NA
4,1,5,"blue_flower","green_flower",0,0.947368421052632,0.781565,53,3,2,0,0,1,"trombone.jpg",1,0.0473564705991261,0,0,0,0.445520475022314,0.184826508325895,0.184826508325895,0.184826508325895,0.445520475022314,-0.217615419028905,0.983293512764665,1.29635736158399,NA
4,2,4,"red_flower","yellow_flower",0,0.923076923076923,0.59303,54,3,3,0,0,1,"electricguitar01.jpg",3,0,0,0.217615419028905,0,0.0166670073642325,0.0166670073642325,0.949998977907302,0.0166670073642325,0.949998977907302,-1,0.82116831205596,0.253449990141458,NA
4,1,3,"blue_flower","green_flower",0,0.9,1.689215,55,3,4,0,0,1,"hockeypuck.jpg",1,0.0103054981931589,0,0,0,0.287583661910792,0.237472112696403,0.237472112696403,0.237472112696403,0.287583661910792,-0.0473564705991261,0.999372602034158,1.38264327380845,NA
4,2,3,"yellow_flower","yellow_flower",1,0.902439024390244,1.03229,56,3,5,0,0,1,"sailboat.jpg",4,0,0,0.217615419028905,0.782384580971095,0.184826508325895,0.184826508325895,0.445520475022314,0.184826508325895,0.184826508325895,1,0.983293512764665,1.29635736158399,NA
4,1,2,"green_flower","green_flower",1,0.904761904761905,1.00815,57,3,6,0,0,1,"surfboard.jpg",2,0.0103054981931589,0.782384580971095,0,0,0.257893347271646,0.247368884242784,0.247368884242784,0.247368884242784,0.247368884242784,1,0.999972309686263,1.38612935928081,NA
4,1,5,"green_flower","green_flower",1,0.906976744186046,0.442635,58,3,7,0,0,1,"desktopcomputer.jpg",2,0.0103054981931589,0.952643529400874,0,0,0.0390630588549339,0.885999100473458,0.0374689203358042,0.0374689203358042,0.885999100473458,0.217615419028905,0.847618490600681,0.480019881283253,NA
4,2,4,"yellow_flower","yellow_flower",1,0.909090909090909,1.553955,59,3,8,0,0,1,"baseballglove.jpg",4,0,0,0.217615419028905,0.952643529400874,0.0356420853056001,0.0356420853056001,0.0859145093415801,0.84280132004722,0.84280132004722,0.217615419028905,0.864494497483373,0.592685759684615,NA
4,1,3,"green_flower","green_flower",1,0.911111111111111,1.92374,60,3,9,0,0,1,"bolt01a.jpg",2,0.0103054981931589,0.989694501806841,0,0,0.0208054467957454,0.939281773642593,0.0199563897808309,0.0199563897808309,0.939281773642593,0.0473564705991261,0.82565482785753,0.295633162514762,NA
4,2,2,"yellow_flower","yellow_flower",1,0.91304347826087,0.72363,61,3,10,0,0,1,"spicerack.jpg",4,0,0,0.217615419028905,0.989694501806841,0.0194260769571693,0.0194260769571693,0.0468261566599401,0.914321689425721,0.914321689425721,0.0473564705991261,0.835903368013145,0.378369638806634,NA
4,1,2,"green_flower","green_flower",1,0.914893617021277,1.312015,62,3,11,0,0,1,"hockeystick.jpg",2,0.0103054981931589,0.997757364692394,0,0,0.0180636120113772,0.947283492937846,0.0173264475253884,0.0173264475253884,0.947283492937846,0.0103054981931588,0.822306946025717,0.264342193510195,NA
4,2,3,"yellow_flower","yellow_flower",1,0.916666666666667,0.407265,63,3,12,0,0,1,"ipad02.jpg",4,0,0,0.217615419028905,0.997757364692394,0.0169252938357013,0.0169252938357013,0.0407980706765177,0.92535134165208,0.92535134165208,0.0103054981931588,0.831367491183287,0.340383074860445,NA
4,2,3,"yellow_flower","yellow_flower",1,0.918367346938776,0.86083,64,3,13,0,1,1,"locomotive.jpg",4,0,0,0.217615419028905,0.999511967977806,0.0164217692323998,0.0164217692323998,0.0395843350361042,0.927572126499096,0.927572126499096,0.00224263530760593,0.830450673314199,0.33252875205326,NA
4,2,4,"yellow_flower","yellow_flower",1,0.92,0.641405,65,3,14,0,1,1,"lintroller.jpg",4,0,0,0.217615419028905,0.999893796706991,0.0163140392960333,0.0163140392960333,0.0393246542529805,0.928047267154953,0.928047267154953,0.000488032022193718,0.83025436861827,0.330838842571825,NA
4,1,3,"green_flower","green_flower",1,0.92156862745098,1.93576,66,3,15,0,1,1,"butterfly2.jpg",2,0.0103054981931589,0.999511967977806,0,0,0.0175138733673971,0.948887839902864,0.0167991433648694,0.0167991433648694,0.948887839902864,0.00224263530760593,0.821634335164165,0.257919499669004,NA
4,1,3,"green_flower","green_flower",1,0.923076923076923,0.482755,67,3,16,0,1,1,"coffeemachine.jpg",2,0.0103054981931589,0.999893796706991,0,0,0.0173963564506417,0.949230799072279,0.0166864222385396,0.0166864222385396,0.949230799072279,0.000488032022193718,0.8214904944091,0.256539696392821,NA
4,1,3,"green_flower","green_flower",1,0.924528301886792,1.26918,68,3,17,0,1,1,"asianelephant.jpg",2,0.0103054981931589,0.99997688852589,0,0,0.0173708820195518,0.949305143174976,0.0166619874027359,0.0166619874027359,0.949305143174976,0.000106203293009255,0.82145931103128,0.256240271696661,NA
4,2,3,"yellow_flower","yellow_flower",1,0.925925925925926,0.88176,69,3,18,0,1,1,"showerhead01.jpg",4,0,0,0.217615419028905,0.99997688852589,0.0162906821289196,0.0162906821289196,0.0392683522848162,0.928150283457345,0.928150283457345,0.000106203293009255,0.830211800423846,0.330472004276576,NA
4,1,5,"green_flower","green_flower",1,0.927272727272727,0.78644,70,3,19,1,1,1,"snowshovel.jpg",2,0.0103054981931589,0.999994970586877,0,0,0.0173653430706906,0.949321307939619,0.0166566744948452,0.0166566744948452,0.949321307939619,2.31114741104932e-05,0.821452530650941,0.256175152080818,NA
4,1,2,"green_flower","green_flower",1,0.928571428571429,0.686885,71,3,20,1,1,1,"hulahoop.jpg",2,0.0103054981931589,0.999998905522156,0,0,0.0173641379315337,0.949324824995169,0.0166555185366487,0.0166555185366487,0.949324824995169,5.02941312297001e-06,0.821451055400866,0.256160982933321,NA
4,2,2,"yellow_flower","yellow_flower",1,0.929824561403509,1.593215,72,3,21,1,1,1,"gps.jpg",4,0,0,0.217615419028905,0.999994970586877,0.0162856033383056,0.0162856033383056,0.0392561099651003,0.928172683358289,0.928172683358289,2.31114741104932e-05,0.83020254405389,0.330392217772885,NA
4,2,2,"yellow_flower","yellow_flower",1,0.931034482758621,0.36861,73,3,22,1,1,1,"treadmill.jpg",4,0,0,0.217615419028905,0.999998905522156,0.0162844983087148,0.0162844983087148,0.0392534463141301,0.92817755706844,0.92817755706844,5.02941312297001e-06,0.830200530062372,0.330374857043349,NA
4,2,3,"green_flower","yellow_flower",0,0.915254237288136,2.294115,74,3,23,1,1,1,"tie02.jpg",2,0,0,0.217615419028905,0.999998905522156,0.0162842578464026,0.0162842578464026,0.0392528666847008,0.928178617622494,0.0162842578464026,0,0.830200091802736,0.330371079177705,NA
4,1,3,"green_flower","green_flower",1,0.916666666666667,0.50349,75,3,24,1,1,1,"contactlens.jpg",2,0.0103054981931589,0.999999761824745,0,0,0.0173638756851603,0.949325590330074,0.0166552669923826,0.0166552669923826,0.949325590330074,1.09447784424344e-06,0.821450734376262,0.256157899597613,NA
