"SubNum","butterfly","response","respFlower","corrFlower","accuracy","cumAcc","RT","trialNum","listN","NfromChange","befAft","befAft2","trialCond","objfile","FlowNum","Q1","Q2","Q3","Q4","P1","P2","P3","P4","Prob","Delta","uncertainty","uncertainty2","CPP","Delta1","Delta2","Delta3","Delta4"
2,1,3,"yellow_flower",1,0,0,0.69177,1,0,1,0,0,1,"toolbox02.jpg",4,0.431834504834681,0,0,0,0.25,0.25,0.25,0.25,0.25,NA,1,1.38629436111989,0.25,1,0,0,0
2,1,5,"green_flower",1,0,0,1.300895,2,0,2,0,0,1,"firehydrant.jpg",2,0.677187970103547,0,0,0,0.460281687965902,0.179906104011366,0.179906104011366,0.179906104011366,0.179906104011366,NA,0.9807261642922,1.28292993535962,0.460281687965902,0.568165495165319,0,0,0
2,2,4,"green_flower",3,0,0,1.38265,3,0,3,0,0,1,"shed02.jpg",2,0,0,0.431834504834681,0,0.25,0.25,0.25,0.25,0.25,NA,1,1.38629436111989,0.25,0,0,1,0
2,2,4,"red_flower",3,1,0.25,0.705845,4,0,4,0,0,1,"toucan.jpg",3,0,0,0.677187970103547,0,0.179906104011366,0.179906104011366,0.460281687965902,0.179906104011366,0.460281687965902,NA,0.9807261642922,1.28292993535962,0.115070421991476,0,0,0.568165495165319,0
2,1,2,"yellow_flower",1,0,0.2,0.937415,5,0,5,0,0,1,"skunk.jpg",4,0.81658934318856,0,0,0,0.592552652397446,0.135815782534185,0.135815782534185,0.135815782534185,0.135815782534185,NA,0.950432888944784,1.12354265566119,0.272741135054169,0.322812029896453,0,0,0
2,1,5,"blue_flower",1,1,0.333333333333333,1.841375,6,0,6,0,1,1,"motorcycle.jpg",1,0.895792393354132,0,0,0,0.663242768380431,0.112252410539856,0.112252410539856,0.112252410539856,0.663242768380431,NA,0.929456489112707,1.0088267345746,0.393006261587249,0.18341065681144,0,0,0
2,2,3,"green_flower",3,0,0.285714285714286,0.668035,7,0,7,0,1,1,"flipflop01b.jpg",2,0,0,0.81658934318856,0,0.135815782534185,0.135815782534185,0.592552652397446,0.135815782534185,0.135815782534185,NA,0.950432888944784,1.12354265566119,0.272741135054169,0,0,0.322812029896453,0
2,2,1,NA,3,0,0.25,NA,8,0,8,0,1,1,"corn02.jpg",NA,0,0,0.895792393354132,0,0.112252410539856,0.112252410539856,0.663242768380431,0.112252410539856,NA,NA,0.929456489112707,1.0088267345746,0.393006261587249,0,0,0.18341065681144,0
2,1,2,"blue_flower",1,1,0.333333333333333,0.535065,9,0,9,1,1,1,"birdfeeder.jpg",1,0.940792833570057,0,0,0,0.700582965513374,0.0998056781622086,0.0998056781622086,0.0998056781622086,0.700582965513374,NA,0.917234839399681,0.939312780682631,0.464656585527263,0.104207606645868,0,0,0
2,2,4,"green_flower",3,0,0.3,0.686855,10,0,10,1,1,1,"marble.jpg",2,0,0,0.940792833570057,0,0.0998056781622086,0.0998056781622086,0.700582965513374,0.0998056781622086,0.0998056781622086,NA,0.917234839399681,0.939312780682631,0.464656585527263,0,0,0.104207606645868,0
2,2,5,"blue_flower",3,0,0.272727272727273,1.40441,11,0,11,1,2,1,"shelf.jpg",1,0,0,0.966360530967996,0,0.0930978567928998,0.0930978567928998,0.7207064296213,0.0930978567928998,0.0930978567928998,NA,0.910354538980382,0.899120232012353,0.504914647728647,0,0,0.0592071664299426,0
2,1,4,"blue_flower",1,1,0.333333333333333,0.535765,12,0,12,1,2,1,"foosballtable.jpg",1,0.966360530967996,0,0,0,0.7207064296213,0.0930978567928998,0.0930978567928998,0.0930978567928998,0.7207064296213,NA,0.910354538980382,0.899120232012353,0.504914647728647,0.0592071664299426,0,0,0
2,1,4,"blue_flower",1,1,0.384615384615385,1.227495,13,0,13,1,2,1,"tennisracket.jpg",1,0.980887214420333,0,0,0,0.731763408899132,0.0894121970336226,0.0894121970336226,0.0894121970336226,0.731763408899132,NA,0.906491939142222,0.876185029808076,0.527386593755205,0.0336394690320039,0,0,0
2,2,3,"red_flower",3,1,0.428571428571429,1.59228,14,0,14,1,2,1,"wheat.jpg",3,0,0,0.980887214420333,0,0.0894121970336226,0.0894121970336226,0.731763408899132,0.0894121970336226,0.731763408899132,NA,0.906491939142222,0.876185029808076,0.527386593755205,0,0,0.0336394690320039,0
2,1,4,"blue_flower",1,1,0.466666666666667,1.43778,15,0,15,1,2,1,"tire.jpg",1,0.98914077471714,0,0,0,0.737920633824005,0.0873597887253316,0.0873597887253316,0.0873597887253316,0.737920633824005,NA,0.904316648846016,0.863144263999315,0.539983318504062,0.0191127855796669,0,0,0
2,1,4,"yellow_flower",1,0,0,0.89249,16,2,1,0,0,1,"handbrush02.jpg",4,0.993830162890052,0,0,0,0.741378083093522,0.0862073056354925,0.0862073056354925,0.0862073056354925,0.0862073056354925,NA,0.903087685498774,0.855735760582797,0.547078184979598,0.01085922528286,0,0,0
2,1,4,"green_flower",1,0,0,1.00008,17,2,2,0,0,1,"treadmill.jpg",2,0.996494511443337,0,0,0,0.743329204554195,0.0855569318152683,0.0855569318152683,0.0855569318152683,0.0855569318152683,NA,0.902391806062127,0.851527479974173,0.551087980779822,0.0061698371099479,0,0,0
2,2,2,"red_flower",3,1,0.333333333333333,1.709635,18,2,3,0,0,1,"shower.jpg",3,0,0,0.98914077471714,0,0.0873597887253316,0.0873597887253316,0.737920633824005,0.0873597887253316,0.737920633824005,NA,0.904316648846016,0.863144263999315,0.539983318504062,0,0,0.0191127855796669,0
2,1,4,"blue_flower",1,1,0.5,0.429325,19,2,4,0,0,1,"skateboard.jpg",1,0.998008302358407,0,0,0,0.744433461880676,0.0851888460397747,0.0851888460397747,0.0851888460397747,0.744433461880676,NA,0.901997220926104,0.849136924508002,0.553359133063289,0.00350548855666288,0,0,0
2,1,3,"blue_flower",1,1,0.6,0.550235,20,2,5,0,0,1,"barrel01.jpg",1,0.998868386123245,0,0,0,0.745059471227823,0.0849801762573923,0.0849801762573923,0.0849801762573923,0.745059471227823,NA,0.901773290264202,0.847778860420675,0.554647201473114,0.00199169764159268,0,0,0
2,1,4,"blue_flower",1,1,0.666666666666667,0.936505,21,2,6,0,0,1,"xylophone.jpg",1,0.999357056041377,0,0,0,0.745414698451291,0.0848617671829031,0.0848617671829031,0.0848617671829031,0.745414698451291,NA,0.901646144945344,0.847007313500506,0.555378281073566,0.00113161387675509,0,0,0
2,2,5,"red_flower",3,1,0.714285714285714,0.984575,22,2,7,0,0,1,"forklift.jpg",3,0,0,0.993830162890052,0,0.0862073056354925,0.0862073056354925,0.741378083093522,0.0862073056354925,0.741378083093522,NA,0.903087685498774,0.855735760582797,0.547078184979598,0,0,0.01085922528286,0
2,2,4,"red_flower",3,1,0.75,0.50491,23,2,8,0,0,1,"scalpel.jpg",3,0,0,0.996494511443337,0,0.0855569318152683,0.0855569318152683,0.743329204554195,0.0855569318152683,0.743329204554195,NA,0.902391806062127,0.851527479974173,0.551087980779822,0,0,0.0061698371099479,0
2,1,5,"blue_flower",1,1,0.777777777777778,0.67293,24,2,9,0,0,1,"sailboat.jpg",1,0.999634701427386,0,0,0,0.745616381052423,0.0847945396491923,0.0847945396491923,0.0847945396491923,0.745616381052423,NA,0.901573932730286,0.846568966750307,0.555793409842535,0.000642943958622522,0,0,0
2,1,2,"blue_flower",1,1,0.8,1.51986,25,2,10,0,0,1,"snowman.jpg",1,0.999792449955607,0,0,0,0.74573092324325,0.0847563589189165,0.0847563589189165,0.0847563589189165,0.74573092324325,NA,0.901532913101071,0.846319919719607,0.556029192227515,0.000365298572614359,0,0,0
2,2,2,"red_flower",3,1,0.818181818181818,0.72473,26,2,11,0,0,1,"stool01.jpg",3,0,0,0.998008302358407,0,0.0851888460397747,0.0851888460397747,0.744433461880676,0.0851888460397747,0.744433461880676,NA,0.901997220926104,0.849136924508002,0.553359133063289,0,0,0.00350548855666288,0
2,2,3,"red_flower",3,1,0.833333333333333,1.93107,27,2,12,0,0,1,"butterfly1.jpg",3,0,0,0.998868386123245,0,0.0849801762573923,0.0849801762573923,0.745059471227823,0.0849801762573923,0.745059471227823,NA,0.901773290264202,0.847778860420675,0.554647201473114,0,0,0.00199169764159268,0
2,1,3,"blue_flower",1,1,0.846153846153846,1.63175,28,2,13,0,1,1,"desktopcomputer.jpg",1,0.999882077226256,0,0,0,0.745795987019758,0.0847346709934138,0.0847346709934138,0.0847346709934138,0.745795987019758,NA,0.901509610027725,0.846178421904421,0.556163129951356,0.000207550044392657,0,0,0
2,1,5,"red_flower",1,0,0.785714285714286,1.459175,29,2,14,0,1,1,"triangle.jpg",3,0.999933000348865,0,0,0,0.745832949123349,0.084722350292217,0.084722350292217,0.084722350292217,0.084722350292217,NA,0.901496370951083,0.84609802841558,0.556239220443305,0.000117922773743895,0,0,0
2,1,5,"blue_flower",1,1,0.8,0.878775,30,2,15,0,1,1,"dartboard.jpg",1,0.999961933110037,0,0,0,0.745853948136848,0.0847153506210507,0.0847153506210507,0.0847153506210507,0.745853948136848,NA,0.901488849263485,0.846052351831972,0.556282449754199,6.69996511354354e-05,0,0,0
2,2,5,"blue_flower",3,0,0.75,0.782865,31,2,16,0,1,1,"electricguitar01.jpg",1,0,0,0.999357056041377,0,0.0848617671829031,0.0848617671829031,0.745414698451291,0.0848617671829031,0.0848617671829031,NA,0.901646144945344,0.847007313500506,0.555378281073566,0,0,0.00113161387675509,0
2,2,2,"red_flower",3,1,0.764705882352941,1.115775,32,2,17,0,1,1,"doubledoors.jpg",3,0,0,0.999634701427386,0,0.0847945396491923,0.0847945396491923,0.745616381052423,0.0847945396491923,0.745616381052423,NA,0.901573932730286,0.846568966750307,0.555793409842535,0,0,0.000642943958622522,0
2,2,5,"red_flower",3,1,0.777777777777778,0.55015,33,2,18,0,1,1,"waterfountain02.jpg",3,0,0,0.999792449955607,0,0.0847563589189165,0.0847563589189165,0.74573092324325,0.0847563589189165,0.74573092324325,NA,0.901532913101071,0.846319919719607,0.556029192227515,0,0,0.000365298572614359,0
2,2,3,"red_flower",3,1,0.789473684210526,0.573515,34,2,19,1,1,1,"skiboot01a.jpg",3,0,0,0.999882077226256,0,0.0847346709934138,0.0847346709934138,0.745795987019758,0.0847346709934138,0.745795987019758,NA,0.901509610027725,0.846178421904421,0.556163129951356,0,0,0.000207550044392657,0
2,2,3,"red_flower",3,1,0.8,0.5883,35,2,20,1,1,1,"rockingchair.jpg",3,0,0,0.999933000348865,0,0.084722350292217,0.084722350292217,0.745832949123349,0.084722350292217,0.745832949123349,NA,0.901496370951083,0.84609802841558,0.556239220443305,0,0,0.000117922773743895,0
2,2,4,"red_flower",3,1,0.80952380952381,1.24097,36,2,21,1,1,1,"trophy01.jpg",3,0,0,0.999961933110037,0,0.0847153506210507,0.0847153506210507,0.745853948136848,0.0847153506210507,0.745853948136848,NA,0.901488849263485,0.846052351831972,0.556282449754199,0,0,6.69996511354354e-05,0
2,2,3,"red_flower",3,1,0.818181818181818,0.988135,37,2,22,1,1,1,"fridge.jpg",3,0,0,0.999978371706615,0,0.0847113738192634,0.0847113738192634,0.74586587854221,0.0847113738192634,0.74586587854221,NA,0.901484575796655,0.84602640004531,0.556307010291266,0,0,3.80668899632175e-05,0
2,1,3,"blue_flower",1,1,0.826086956521739,0.48223,38,2,23,1,1,1,"filingcabinet.jpg",1,0.999978371706615,0,0,0,0.74586587854221,0.0847113738192634,0.0847113738192634,0.0847113738192634,0.74586587854221,NA,0.901484575796655,0.84602640004531,0.556307010291266,3.80668899632175e-05,0,0,0
2,2,5,"red_flower",3,1,0.833333333333333,1.285795,39,2,24,1,1,1,"crown.jpg",3,0,0,0.999987711549979,0,0.0847091143925365,0.0847091143925365,0.74587265682239,0.0847091143925365,0.74587265682239,NA,0.901482147791423,0.84601165515889,0.556320964461444,0,0,2.16282933853673e-05,0
2,1,4,"blue_flower",1,1,0.84,0.433035,40,2,25,1,2,1,"file.jpg",1,0.999987711549979,0,0,0,0.74587265682239,0.0847091143925365,0.0847091143925365,0.0847091143925365,0.74587265682239,NA,0.901482147791423,0.84601165515889,0.556320964461444,2.16282933853673e-05,0,0,0
2,2,5,"red_flower",3,1,0.846153846153846,0.870485,41,2,26,1,2,1,"blender.jpg",3,0,0,0.999993018126709,0,0.0847078306819313,0.0847078306819313,0.745876507954206,0.0847078306819313,0.745876507954206,NA,0.90148076829269,0.846003277630723,0.556328892649211,0,0,1.22884500208809e-05,0
2,1,3,"blue_flower",1,1,0.851851851851852,0.61911,42,2,27,1,2,1,"sandcastle.jpg",1,0.999993018126709,0,0,0,0.745876507954206,0.0847078306819313,0.0847078306819313,0.0847078306819313,0.745876507954206,NA,0.90148076829269,0.846003277630723,0.556328892649211,1.22884500208809e-05,0,0,0
2,2,3,"red_flower",3,1,0.857142857142857,0.616875,43,2,28,1,2,1,"crab01.jpg",3,0,0,0.999996033140504,0,0.0847071013275734,0.0847071013275734,0.74587869601728,0.0847071013275734,0.74587869601728,NA,0.901479984512357,0.845998517810714,0.556333397142805,0,0,6.98187329095656e-06,0
2,1,4,"blue_flower",1,1,0.862068965517241,0.998295,44,2,29,1,2,1,"butterfly1.jpg",1,0.999996033140504,0,0,0,0.74587869601728,0.0847071013275734,0.0847071013275734,0.0847071013275734,0.74587869601728,NA,0.901479984512357,0.845998517810714,0.556333397142805,6.98187329095656e-06,0,0,0
2,2,4,"red_flower",3,1,0.866666666666667,0.878635,45,2,30,1,2,1,"doghouse.jpg",3,0,0,0.99999774616731,0,0.084706686935438,0.084706686935438,0.745879939193686,0.084706686935438,0.745879939193686,NA,0.901479539196465,0.845995813446007,0.556335956431234,0,0,3.9668594955522e-06,0
2,1,3,"blue_flower",1,1,0.870967741935484,1.05154,46,2,31,1,2,1,"chime.jpg",1,0.99999774616731,0,0,0,0.745879939193686,0.084706686935438,0.084706686935438,0.084706686935438,0.745879939193686,NA,0.901479539196465,0.845995813446007,0.556335956431234,3.9668594955522e-06,0,0,0
2,1,2,"blue_flower",1,1,0.875,0.874645,47,2,32,1,2,1,"contactlens.jpg",1,0.999998719450034,0,0,0,0.745880645521838,0.0847064514927206,0.0847064514927206,0.0847064514927206,0.745880645521838,NA,0.901479286183679,0.845994276919547,0.556337410527576,2.25383268959156e-06,0,0,0
2,1,4,"blue_flower",1,1,0.878787878787879,1.315535,48,2,33,1,2,1,"snowglobe.jpg",1,0.999999272435694,0,0,0,0.745881046832546,0.0847063177224847,0.0847063177224847,0.0847063177224847,0.745881046832546,NA,0.901479142430654,0.845993403918312,0.556338236693964,1.28054996606508e-06,0,0,0
2,2,5,"red_flower",3,1,0.882352941176471,0.584235,49,2,34,1,2,1,"beerbottle.jpg",3,0,0,0.999998719450034,0,0.0847064514927206,0.0847064514927206,0.745880645521838,0.0847064514927206,0.745880645521838,NA,0.901479286183679,0.845994276919547,0.556337410527576,0,0,2.25383268959156e-06,0
2,2,4,"red_flower",3,1,0.885714285714286,1.285815,50,2,35,1,2,1,"salmon.jpg",3,0,0,0.999999272435694,0,0.0847063177224847,0.0847063177224847,0.745881046832546,0.0847063177224847,0.745881046832546,NA,0.901479142430654,0.845993403918312,0.556338236693964,0,0,1.28054996606508e-06,0
2,1,5,"blue_flower",1,1,0.888888888888889,1.362765,51,2,36,1,2,1,"microwave.jpg",1,0.999999586623066,0,0,0,0.745881274843257,0.0847062417189145,0.0847062417189145,0.0847062417189145,0.745881274843257,NA,0.90147906075518,0.84599290790916,0.556338706092882,7.27564305580408e-07,0,0,0
2,1,5,"blue_flower",2,0,0.864864864864865,0.62419,52,3,1,0,0,1,"whiteout.jpg",1,0.568165260298809,0.431834504834681,0,0,0.745881404391015,0.0847061985363284,0.0847061985363284,0.0847061985363284,0.745881404391015,NA,0.901479014350006,0.845992626093883,0.00717514372830859,-0.999999586623066,1,0,0
2,1,3,"red_flower",2,0,0.842105263157895,1.803355,53,3,2,0,0,1,"dromedary.jpg",3,0.322811896453405,0.677187970103547,0,0,0.430206387346681,0.319799436512199,0.12499708807056,0.12499708807056,0.12499708807056,NA,0.977645242309648,1.24731991926667,0.0270889945610083,-0.568165260298809,0.568165495165319,0,0
2,2,4,"red_flower",4,0,0.82051282051282,1.698595,54,3,3,0,0,1,"cruiseship.jpg",3,0,0,0.568165081788385,0.431834504834681,0.0847062417189145,0.0847062417189145,0.745881274843257,0.0847062417189145,0.745881274843257,NA,0.90147906075518,0.84599290790916,0.00717515382411996,0,0,-0.999999272435694,1
2,1,5,"red_flower",2,0,0.8,1.9447,55,3,4,0,0,1,"rollerblade.jpg",3,0.183410580993705,0.81658934318856,0,0,0.240809165359849,0.520560933247601,0.119314950696275,0.119314950696275,0.119314950696275,NA,0.965423407557245,1.1900239659921,0.166475093122847,-0.322811896453405,0.322812029896453,0,0
2,2,5,"red_flower",4,0,0.780487804878049,0.658165,56,3,5,0,0,1,"windshieldwiper02.jpg",3,0,0,0.322811795029942,0.677187970103547,0.124997108952709,0.124997108952709,0.430206292156341,0.31979948993824,0.430206292156341,NA,0.977645254190409,1.24731998673089,0.0270890128962942,0,0,-0.568165081788385,0.568165495165319
2,1,3,"blue_flower",2,0,0.761904761904762,0.46175,57,3,6,0,0,1,"candycane01a.jpg",1,0.104207563568847,0.895792393354132,0,0,0.158564224176701,0.628642871011069,0.106396452406115,0.106396452406115,0.158564224176701,NA,0.939562668130981,1.06060231104132,0.327246919612973,-0.183410580993705,0.18341065681144,0,0
2,1,4,"red_flower",2,0,0.744186046511628,0.790395,58,3,7,0,0,1,"canoepaddle02.jpg",3,0.0592071419550656,0.940792833570057,0,0,0.122099748322292,0.68323243862466,0.0973339065265239,0.0973339065265239,0.0973339065265239,NA,0.922888741107751,0.970522309958983,0.4295092017849,-0.104207563568847,0.104207606645868,0,0
2,2,2,"red_flower",4,0,0.727272727272727,1.33789,59,3,8,0,0,1,"hotdog.jpg",3,0,0,0.183410523368393,0.81658934318856,0.119314957035573,0.119314957035573,0.240809125023437,0.520560960905416,0.240809125023437,NA,0.9654234037067,1.19002395357402,0.166475129779312,0,0,-0.322811795029942,0.322812029896453
2,1,3,"green_flower",2,1,0.733333333333333,1.0858,60,3,9,0,0,1,"cactus.jpg",2,0.0336394551262232,0.966360530967996,0,0,0.104557070947683,0.711599902107148,0.0919215134725847,0.0919215134725847,0.711599902107148,NA,0.913462872208055,0.917006803510547,0.486188136441736,-0.0592071419550656,0.0592071664299426,0,0
2,2,4,"green_flower",4,0,0.717391304347826,1.10519,61,3,10,0,0,1,"bookshelf.jpg",2,0,0,0.104207530828133,0.895792393354132,0.10639645452097,0.10639645452097,0.158564207451385,0.628642883506676,0.10639645452097,NA,0.93956266480393,1.06060229551742,0.327246943504587,0,0,-0.183410523368393,0.18341065681144
2,1,2,"green_flower",2,1,0.723404255319149,0.651745,62,3,11,0,0,1,"bathtub.jpg",2,0.0191127776788822,0.980887214420333,0,0,0.0955519604902349,0.726829393505769,0.0888093230019981,0.0888093230019981,0.726829393505769,NA,0.908214252223093,0.886330435037815,0.517211725267303,-0.0336394551262232,0.0336394690320039,0,0
2,2,3,"yellow_flower",4,1,0.729166666666667,0.67933,63,3,12,0,0,1,"spicerack.jpg",4,0,0,0.0592071233529216,0.940792833570057,0.0973339073729751,0.0973339073729751,0.122099740687751,0.683232444566299,0.683232444566299,NA,0.922888739238432,0.970522300111265,0.429509214057473,0,0,-0.104207530828133,0.104207606645868
2,2,3,"yellow_flower",4,1,0.73469387755102,0.601925,64,3,13,0,1,1,"stepladder.jpg",4,0,0,0.0336394445571269,0.966360530967996,0.091921513861512,0.091921513861512,0.104557067158992,0.711599905117984,0.711599905117984,NA,0.913462871196812,0.917006797836602,0.486188142726907,0,0,-0.0592071233529216,0.0592071664299426
2,2,4,"yellow_flower",4,1,0.74,0.51113,65,3,14,0,1,1,"snowshovel.jpg",4,0,0,0.0191127716738863,0.980887214420333,0.0888093231971042,0.0888093231971042,0.0955519585032436,0.726829395102548,0.726829395102548,NA,0.908214251670233,0.886330431826471,0.517211728591935,0,0,-0.0336394445571269,0.0336394690320039
2,1,3,"green_flower",2,1,0.745098039215686,1.296935,66,3,15,0,1,1,"seaturtle.jpg",2,0.0108592207939067,0.98914077471714,0,0,0.0907320550762806,0.735193967945849,0.0870369884889351,0.0870369884889351,0.735193967945849,NA,0.905279585731673,0.868891922339944,0.534360585831181,-0.0191127776788822,0.0191127855796669,0,0
2,1,3,"green_flower",2,1,0.75,0.50778,67,3,16,0,1,1,"winniethepooh.jpg",2,0.00616983455947956,0.993830162890052,0,0,0.0880864970042659,0.739853457975222,0.0860300225102558,0.0860300225102558,0.739853457975222,NA,0.90362950931082,0.858994113378418,0.543935799467261,-0.0108592207939067,0.01085922528286,0,0
2,1,3,"green_flower",2,1,0.754716981132076,0.71595,68,3,17,0,1,1,"witchhat.jpg",2,0.0035054871075748,0.996494511443337,0,0,0.0866128645166203,0.74247086176363,0.0854581368598749,0.0854581368598749,0.74247086176363,NA,0.90269790536774,0.853376080834222,0.549319634521665,-0.00616983455947956,0.0061698371099479,0,0
2,2,3,"yellow_flower",4,1,0.759259259259259,1.492595,69,3,18,0,1,1,"granolabar01.jpg",4,0,0,0.0108592173820753,0.98914077471714,0.0870369885920953,0.0870369885920953,0.0907320539985748,0.735193968817235,0.735193968817235,NA,0.905279585425271,0.868891920525389,0.534360587638472,0,0,-0.0191127716738863,0.0191127855796669
2,1,5,"green_flower",2,1,0.763636363636364,0.829085,70,3,19,1,1,1,"shovel01.jpg",2,0.00199169681827088,0.998008302358407,0,0,0.0857850176448971,0.743948323401598,0.0851333294767526,0.0851333294767526,0.743948323401598,NA,0.902170565167751,0.850186309357939,0.552359952783592,-0.0035054871075748,0.00350548855666288,0,0
2,1,2,"green_flower",2,1,0.767857142857143,0.564905,71,3,20,1,1,1,"fluorescentlightbulb.jpg",2,0.00113161340897207,0.998868386123245,0,0,0.085317686680125,0.744784651676847,0.0849488308215139,0.0849488308215139,0.744784651676847,NA,0.901871592947475,0.848374774713851,0.554081292910233,-0.00199169681827088,0.00199169764159268,0,0
2,2,4,"green_flower",4,0,0.754385964912281,1.48681,72,3,21,1,1,1,"urinal.jpg",2,0,0,0.00616983262099466,0.993830162890052,0.0860300225665006,0.0860300225665006,0.0880864964080749,0.739853458458924,0.0860300225665006,NA,0.903629509139329,0.858994112351694,0.543935800467573,0,0,-0.0108592173820753,0.01085922528286
2,2,2,"yellow_flower",4,1,0.758620689655172,0.927935,73,3,22,1,1,1,"frisbee.jpg",4,0,0,0.00350548600619457,0.996494511443337,0.0854581368910877,0.0854581368910877,0.0866128641830137,0.742470862034811,0.742470862034811,NA,0.90269790527116,0.853376080252418,0.549319635081433,0,0,-0.00616983262099466,0.0061698371099479
2,2,3,"green_flower",4,0,0.745762711864407,1.820445,74,3,23,1,1,1,"porcupine.jpg",2,0,0,0.00199169619250464,0.998008302358407,0.0851333294942505,0.0851333294942505,0.0857850174569948,0.743948323554504,0.0851333294942505,NA,0.902170565113157,0.850186309027908,0.552359953098865,0,0,-0.00350548600619457,0.00350548855666288
2,1,3,"green_flower",2,1,0.75,0.623595,75,3,24,1,1,1,"showerhead01.jpg",2,0.000642943692844329,0.999357056041377,0,0,0.085053137935414,0.745258819736295,0.0848440211641457,0.0848440211641457,0.745258819736295,NA,0.90170193701726,0.847345789388987,0.555057330466394,-0.00113161340897207,0.00113161387675509,0,0
2,1,2,"green_flower",2,1,0.754098360655738,0.67093,76,3,25,1,2,1,"handheldtelescope.jpg",2,0.000365298421608317,0.999634701427386,0,0,0.084903143822929,0.745527901410969,0.084784477383051,0.084784477383051,0.745527901410969,NA,0.901605612411249,0.846761243764537,0.555611243886015,-0.000642943692844329,0.000642943958622522,0,0
2,2,5,"yellow_flower",4,1,0.758064516129032,0.885565,77,3,26,1,2,1,"acorn.jpg",4,0,0,0.00113161305343328,0.998868386123245,0.08494883083138,0.08494883083138,0.0853176865738928,0.744784651763347,0.744784651763347,NA,0.901871592916547,0.848374774526516,0.554081293088468,0,0,-0.00199169619250464,0.00199169764159268
2,1,4,"yellow_flower",2,0,0.746031746031746,2.05171,78,3,27,1,2,1,"polarbear.jpg",4,0.000207549958596199,0.999792449955607,0,0,0.0848180233875966,0.745680679680667,0.0847506484658684,0.0847506484658684,0.0847506484658684,NA,0.901550906116688,0.846429154066383,0.555925752245032,-0.000365298421608317,0.000365298572614359,0,0
2,1,4,"green_flower",2,1,0.75,1.99623,79,3,28,1,2,1,"pirateflag.jpg",2,0.000117922724997351,0.999882077226256,0,0,0.0847696934910652,0.745767449242377,0.0847314286332787,0.0847314286332787,0.745767449242377,NA,0.90151983100777,0.84624048158672,0.556104378434773,-0.000207549958596199,0.000207550044392657,0,0
2,2,2,"yellow_flower",4,1,0.753846153846154,0.533265,80,3,29,1,2,1,"seagull.jpg",4,0,0,0.000642943490839457,0.999357056041377,0.084844021169727,0.084844021169727,0.0850531378752262,0.74525881978532,0.74525881978532,NA,0.901701936999717,0.847345789282608,0.555057330567372,0,0,-0.00113161305343328,0.00113161387675509
2,1,2,"yellow_flower",2,0,0.742424242424242,1.01428,81,3,30,1,2,1,"toyanimal05.jpg",4,6.69996234393638e-05,0.999933000348865,0,0,0.0847422446306737,0.745816737809627,0.0847205087798495,0.0847205087798495,0.0847205087798495,NA,0.901502177503522,0.846133287452201,0.556205846158557,-0.000117922724997351,0.000117922773743895,0,0
2,2,4,"yellow_flower",4,1,0.746268656716418,1.375635,82,3,31,1,2,1,"greywolf.jpg",4,0,0,0.000365298306836119,0.999634701427386,0.0847844773862143,0.0847844773862143,0.0849031437887871,0.745527901438784,0.745527901438784,NA,0.901605612401292,0.846761243704115,0.555611243943295,0,0,-0.000642943490839457,0.000642943958622522
2,2,5,"green_flower",4,0,0.735294117647059,1.979045,83,3,32,1,2,1,"butterfly3.jpg",2,0,0,0.000207549893386596,0.999792449955607,0.0847506484676631,0.0847506484676631,0.084818023368216,0.745680679696458,0.0847506484676631,NA,0.901550906111033,0.846429154032059,0.555925752277546,0,0,-0.000365298306836119,0.000365298572614359
2,2,4,"yellow_flower",4,1,0.739130434782609,0.90394,84,3,33,1,2,1,"surfboard.jpg",4,0,0,0.000117922687947505,0.999882077226256,0.0847314286342976,0.0847314286342976,0.0847696934800595,0.745767449251345,0.745767449251345,NA,0.901519831004559,0.846240481567221,0.556104378453237,0,0,-0.000207549893386596,0.000207550044392657
2,1,2,"green_flower",2,1,0.742857142857143,0.53573,85,3,34,1,2,1,"donut.jpg",2,3.80668742273161e-05,0.999961933110037,0,0,0.0847266525303557,0.745844738353113,0.0847143045582656,0.0847143045582656,0.745844738353113,NA,0.901492148134496,0.846072384433655,0.556263489670994,-6.69996234393638e-05,6.69996511354354e-05,0,0
2,2,5,"yellow_flower",4,1,0.746478873239437,1.4628,86,3,35,1,2,1,"apron.jpg",4,0,0,6.69996023889195e-05,0.999933000348865,0.0847205087804282,0.0847205087804282,0.0847422446244225,0.745816737814721,0.745816737814721,NA,0.901502177501698,0.846133287441123,0.556205846169044,0,0,-0.000117922687947505,0.000117922773743895
2,2,4,"yellow_flower",4,1,0.75,1.26608,87,3,36,1,2,1,"footballhelmet.jpg",4,0,0,3.806686226718e-05,0.999961933110037,0.0847143045585943,0.0847143045585943,0.0847266525268046,0.745844738356007,0.745844738356007,NA,0.90149214813346,0.846072384427361,0.556263489676951,0,0,-6.69996023889195e-05,6.69996511354354e-05
2,1,2,"green_flower",4,0,0.73972602739726,1.30201,88,4,1,0,0,1,"christmaslights.jpg",2,2.1628284444759e-05,0.568143866871934,0,0.431834504834681,0.0847177947327909,0.74586064615958,0.0847107795538148,0.0847107795538148,0.74586064615958,NA,0.901486450032979,0.846037781760039,0.00717621477848996,-3.80668742273161e-05,-0.999961933110037,0,1
2,2,5,"yellow_flower",1,0,0.72972972972973,0.98994,89,4,2,0,0,1,"zebra.jpg",4,0.431834504834681,0,2.16282776494223e-05,0.568143866871934,0.0847107795540015,0.0847107795540015,0.0847177947307735,0.745860646161223,0.745860646161223,NA,0.90148645003239,0.846037781756463,0.00717621477853362,1,0,-3.806686226718e-05,-0.999961933110037
2,2,2,"yellow_flower",1,0,0.72,1.300615,90,4,3,0,0,1,"giraffe.jpg",4,0.677187970103547,0,1.2288441080257e-05,0.322799741446432,0.319803958416212,0.124998855505926,0.12500473680233,0.430192449275532,0.430192449275532,NA,0.977647391576414,1.24733289797174,0.0270908426218928,0.568165495165319,0,-2.16282776494223e-05,-0.568143866871934
2,1,5,"red_flower",4,0,0.710526315789474,1.59118,91,4,4,0,0,1,"mirror02.jpg",3,1.22884449411329e-05,0.322799741446432,0,0.677187970103547,0.125004736803947,0.430192449274737,0.124998855505695,0.319803958415621,0.124998855505695,NA,0.977647391576642,1.24733289797328,0.027090842621783,-2.1628284444759e-05,-0.568143866871934,0,0.568165495165319
2,1,2,"yellow_flower",4,1,0.714285714285714,0.47343,92,4,5,0,0,1,"recyclingbin.jpg",4,6.98187040479052e-06,0.183403674938149,0,0.81658934318856,0.11931851943409,0.240803563245155,0.119315329851465,0.520562587469291,0.520562587469291,NA,0.965423418027945,1.19002546298826,0.166477976075757,-1.22884449411329e-05,-0.322799741446432,0,0.322812029896453
2,1,2,"yellow_flower",4,1,0.717948717948718,0.7477,93,4,6,0,0,1,"fishingrod.jpg",4,3.96685785571789e-06,0.104203639786373,0,0.895792393354132,0.106398149907635,0.158561963521677,0.10639653392221,0.628643352648478,0.628643352648478,NA,0.939562589502426,1.06060235740809,0.327248210250062,-6.98187040479052e-06,-0.183403674938149,0,0.18341065681144
2,1,1,NA,4,0,0.708860759493671,NA,94,4,7,0,0,1,"barn.jpg",NA,2.25383175784439e-06,0.059204912597253,0,0.940792833570057,0.0973347661525829,0.122098730814681,0.097333926213804,0.683232576818932,NA,NA,0.922888709441073,0.970522271313184,0.429509617730113,-3.96685785571789e-06,-0.104203639786373,0,0.104207606645868
2,2,3,"blue_flower",1,1,0.7125,0.68313,95,4,8,0,0,1,"lightswitch01.jpg",1,0.81658934318856,0,6.9818682111741e-06,0.183403674938149,0.520562587469812,0.119315329851584,0.119318519433207,0.240803563245396,0.520562587469812,NA,0.965423418027797,1.19002546298732,0.166477976076232,0.322812029896453,0,-1.2288441080257e-05,-0.322799741446432
2,2,2,"blue_flower",1,1,0.716049382716049,0.594555,96,4,9,0,0,1,"birdfeeder.jpg",1,0.895792393354132,0,3.96685660938073e-06,0.104203639786373,0.628643352648798,0.106396533922264,0.106398149907181,0.158561963521758,0.628643352648798,NA,0.939562589502326,1.06060235740749,0.327248210250556,0.18341065681144,0,-6.9818682111741e-06,-0.183403674938149
2,1,4,"blue_flower",4,0,0.707317073170732,1.141275,97,4,10,0,0,1,"cannon.jpg",1,1.28054943671498e-06,0.0336381884820377,0,0.966360530967996,0.0919219693419205,0.104556569773889,0.0919215186553394,0.711599942228851,0.0919219693419205,NA,0.913462861900159,0.91700678594607,0.486188262193221,-2.25383175784439e-06,-0.059204912597253,0,0.0592071664299426
2,2,3,"blue_flower",1,1,0.710843373493976,1.21427,98,4,11,0,0,1,"coffeemachine.jpg",1,0.940792833570057,0,2.25383104971863e-06,0.059204912597253,0.683232576819112,0.0973339262138297,0.0973347661523448,0.122098730814713,0.683232576819112,NA,0.922888709441013,0.970522271312825,0.429509617730444,0.104207606645868,0,-3.96685660938073e-06,-0.104203639786373
2,1,4,"yellow_flower",4,1,0.714285714285714,0.54188,99,4,12,0,0,1,"treestump.jpg",4,7.27564004794839e-07,0.0191120580153613,0,0.980887214420333,0.0888095718080381,0.0955516987222649,0.088809324413334,0.726829405056363,0.726829405056363,NA,0.908214249141129,0.886330429911249,0.517211762648338,-1.28054943671498e-06,-0.0336381884820377,0,0.0336394690320039
2,2,4,"yellow_flower",1,0,0.705882352941177,1.410895,100,4,13,0,1,1,"panda.jpg",4,0.966360530967996,0,1.28054903438235e-06,0.0336381884820377,0.711599942228952,0.0919215186553524,0.0919219693417919,0.104556569773904,0.104556569773904,NA,0.913462861900124,0.917006785945861,0.486188262193418,0.0592071664299426,0,-2.25383104971863e-06,-0.059204912597253
2,2,5,"blue_flower",1,1,0.709302325581395,0.999305,101,4,14,0,1,1,"butterfly2.jpg",1,0.980887214420333,0,7.27563776203322e-07,0.0191120580153613,0.726829405056419,0.0888093244133409,0.0888095718079673,0.0955516987222723,0.726829405056419,NA,0.908214249141109,0.88633042991113,0.517211762648452,0.0336394690320039,0,-1.28054903438235e-06,-0.0336381884820377
2,2,5,"green_flower",1,0,0.701149425287356,1.430965,102,4,15,0,1,1,"cymbal.jpg",2,0.98914077471714,0,4.1337663317091e-07,0.0108588119059261,0.735193971098901,0.0870369888622137,0.0870371266180944,0.0907319134207905,0.0870369888622137,NA,0.905279584901069,0.868891921501422,0.534360596614881,0.0191127855796669,0,-7.27563776203322e-07,-0.0191120580153613
2,1,5,"red_flower",4,0,0.693181818181818,0.963465,103,4,16,0,1,1,"baseballglove.jpg",3,4.13376763048723e-07,0.0108588119059261,0,0.98914077471714,0.0870371266181339,0.0907319134207865,0.0870369888622099,0.73519397109887,0.0870369888622099,NA,0.905279584901081,0.86889192150149,0.534360596614816,-7.27564004794839e-07,-0.0191120580153613,0,0.0191127855796669
2,2,2,"green_flower",1,0,0.685393258426966,0.48198,104,4,17,0,1,1,"weddingcake.jpg",2,0.993830162890052,0,2.34866339475323e-07,0.00616960224343755,0.739853458707007,0.0860300225953476,0.0860300999579435,0.0880864187397016,0.0860300225953476,NA,0.903629509137976,0.858994113652564,0.543935802338062,0.01085922528286,0,-4.1337663317091e-07,-0.0108588119059261
2,2,4,"yellow_flower",1,0,0.677777777777778,2.080305,105,4,18,0,1,1,"key07.jpg",4,0.996494511443337,0,1.33442950065663e-07,0.00350535511361576,0.742470861844885,0.0854581368692273,0.0854581805317866,0.0866128207541011,0.0866128207541011,NA,0.90269790536619,0.853376081245898,0.549319635125111,0.0061698371099479,0,-2.34866339475323e-07,-0.00616960224343755
2,1,4,"yellow_flower",4,1,0.681318681318681,1.288975,106,4,19,1,1,1,"tricycle.jpg",4,2.34866413267414e-07,0.00616960224343755,0,0.993830162890052,0.0860300999579657,0.0880864187396995,0.0860300225953455,0.739853458706989,0.739853458706989,NA,0.903629509137983,0.858994113652602,0.543935802338025,-4.13376763048723e-07,-0.0108588119059261,0,0.01085922528286
2,2,3,"blue_flower",1,1,0.684782608695652,0.65366,107,4,20,1,1,1,"escalator.jpg",1,0.998008302358407,0,7.58176798003783e-08,0.00199162182385778,0.743948323341165,0.0851333294698371,0.0851333541831059,0.0857849930058922,0.743948323341165,NA,0.902170565198067,0.850186309676827,0.552359952799172,0.00350548855666288,0,-1.33442950065663e-07,-0.00350535511361576
2,2,5,"red_flower",1,0,0.67741935483871,0.8949,108,4,21,1,1,1,"volleyball.jpg",3,0.998868386123245,0,4.30769895860676e-08,0.00113157079973421,0.744784651608354,0.0849488308137018,0.0849488448244978,0.0853176727534459,0.0849488448244978,NA,0.901871592974767,0.848374774922889,0.554081292814269,0.00199169764159268,0,-7.58176798003783e-08,-0.00199162182385778
2,2,4,"yellow_flower",1,0,0.670212765957447,0.937155,109,4,22,1,1,1,"football.jpg",4,0.999357056041377,0,2.44748591183994e-08,0.000642919483745607,0.7452588196864,0.0848440211584655,0.0848440291090945,0.0850531300460401,0.0850531300460401,NA,0.901701937036015,0.847345789516825,0.555057330378189,0.00113161387675509,0,-4.30769895860676e-08,-0.00113157079973421
2,1,2,"blue_flower",4,0,0.663157894736842,0.7985,110,4,23,1,1,1,"windturbine.jpg",1,1.33442991991783e-07,0.00350535511361576,0,0.996494511443337,0.0854581805317991,0.0866128207540999,0.0854581368692262,0.742470861844875,0.0854581805317991,NA,0.902697905366193,0.85337608124592,0.54931963512509,-2.34866413267414e-07,-0.00616960224343755,0,0.0061698371099479
2,1,5,"yellow_flower",4,1,0.666666666666667,0.41246,111,4,24,1,1,1,"locomotive.jpg",4,7.58177036213532e-08,0.00199162182385778,0,0.998008302358407,0.085133354183113,0.0857849930058916,0.0851333294698364,0.743948323341159,0.743948323341159,NA,0.902170565198069,0.850186309676839,0.55235995279916,-1.33442991991783e-07,-0.00350535511361576,0,0.00350548855666288
2,1,3,"yellow_flower",4,1,0.670103092783505,1.045065,112,4,25,1,2,1,"bowlingpin.jpg",4,4.30770031203236e-08,0.00113157079973421,0,0.998868386123245,0.0849488448245018,0.0853176727534455,0.0849488308137014,0.744784651608351,0.744784651608351,NA,0.901871592974768,0.848374774922897,0.554081292814262,-7.58177036213532e-08,-0.00199162182385778,0,0.00199169764159268
2,1,3,"blue_flower",4,0,0.663265306122449,0.58089,113,4,26,1,2,1,"musicstand.jpg",1,2.44748668080966e-08,0.000642919483745607,0,0.999357056041377,0.0848440291090967,0.0850531300460399,0.0848440211584653,0.745258819686398,0.0848440291090967,NA,0.901701937036015,0.847345789516829,0.555057330378185,-4.30770031203236e-08,-0.00113157079973421,0,0.00113161387675509
2,1,5,"green_flower",4,0,0.656565656565657,0.58993,114,4,27,1,2,1,"car.jpg",2,1.39057748191275e-08,0.000365284666833754,0,0.999634701427386,0.0847844818935291,0.0849031393479623,0.0847844773794249,0.745527901379084,0.0849031393479623,NA,0.901605612422954,0.846761243840113,0.555611243825053,-2.44748668080966e-08,-0.000642919483745607,0,0.000642943958622522
2,1,3,"yellow_flower",4,1,0.66,1.3527,115,4,28,1,2,1,"dreamcatcher.jpg",4,7.90078143576699e-09,0.000207542143607899,0,0.999792449955607,0.0847506510274147,0.0848180208474947,0.0847506484636798,0.745680679661411,0.745680679661411,NA,0.901550906123677,0.846429154110275,0.5559257522069,-1.39057748191275e-08,-0.000365284666833754,0,0.000365298572614359
2,2,5,"blue_flower",1,1,0.663366336633663,0.80972,116,4,29,1,2,1,"table01.jpg",1,0.999634701427386,0,1.39057704501068e-08,0.000365284666833754,0.745527901379085,0.084784477379425,0.0847844818935278,0.0849031393479624,0.745527901379085,NA,0.901605612422954,0.846761243840111,0.555611243825056,0.000642943958622522,0,-2.44748591183994e-08,-0.000642919483745607
2,1,3,"yellow_flower",4,1,0.666666666666667,2.22833,117,4,30,1,2,1,"jaguar.jpg",4,4.48895139664552e-09,0.000117918284790654,0,0.999882077226256,0.0847314300882892,0.0847696920486476,0.0847314286319939,0.745767449231069,0.745767449231069,NA,0.901519831011851,0.846240481611966,0.55610437841198,-7.90078143576699e-09,-0.000207542143607899,0,0.000207550044392657
2,1,3,"yellow_flower",4,1,0.669902912621359,0.5662,118,4,31,1,2,1,"butterfly3.jpg",4,2.55046729304815e-09,6.69971006671269e-05,0,0.999933000348865,0.0847205096064163,0.0847422438113938,0.0847205087791062,0.745816737803084,0.745816737803084,NA,0.901502177505876,0.846133287466644,0.556205846145243,-4.48895139664552e-09,-0.000117918284790654,0,0.000117922773743895
2,2,4,"blue_flower",1,1,0.673076923076923,0.5278,119,4,32,1,2,1,"skihelmet01.jpg",1,0.999792449955607,0,7.90077895344021e-09,0.000207542143607899,0.745680679661411,0.0847506484636799,0.084750651027414,0.0848180208474948,0.745680679661411,NA,0.901550906123677,0.846429154110274,0.555925752206902,0.000365298572614359,0,-1.39057704501068e-08,-0.000365284666833754
2,1,3,"blue_flower",4,0,0.666666666666667,0.91649,120,4,33,1,2,1,"bleachers.jpg",1,1.44908751245765e-09,3.80654408751789e-05,0,0.999961933110037,0.0847143050278536,0.0847266520649504,0.084714304557839,0.745844738349357,0.0847143050278536,NA,0.901492148135845,0.846072384441894,0.556263489663312,-2.55046729304815e-09,-6.69971006671269e-05,0,6.69996511354354e-05
2,2,4,"blue_flower",1,1,0.669811320754717,0.64138,121,4,34,1,2,1,"jackrabbit.jpg",1,0.999882077226256,0,4.48894998627309e-09,0.000117918284790654,0.74576744923107,0.0847314286319939,0.0847314300882888,0.0847696920486476,0.74576744923107,NA,0.90151983101185,0.846240481611965,0.556104378411981,0.000207550044392657,0,-7.90077895344021e-09,-0.000207542143607899
2,2,3,"blue_flower",1,1,0.672897196261682,0.40585,122,4,35,1,2,1,"hulahoop.jpg",1,0.999933000348865,0,2.5504664917232e-09,6.69971006671269e-05,0.745816737803084,0.0847205087791063,0.0847205096064161,0.0847422438113938,0.745816737803084,NA,0.901502177505876,0.846133287466644,0.556205846145243,0.000117922773743895,0,-4.48894998627309e-09,-0.000117918284790654
2,2,2,"blue_flower",1,1,0.675925925925926,0.656225,123,4,36,1,2,1,"dogsled.jpg",1,0.999961933110037,0,1.44908705717247e-09,3.80654408751789e-05,0.745844738349357,0.084714304557839,0.0847143050278535,0.0847266520649504,0.745844738349357,NA,0.901492148135845,0.846072384441893,0.556263489663312,6.69996511354354e-05,0,-2.5504664917232e-09,-6.69971006671269e-05
2,1,2,"blue_flower",3,0,0.669724770642202,0.967735,124,5,1,0,0,1,"trombone.jpg",1,8.23321524053384e-10,2.16274700635322e-05,0.431834504834681,0.568143866871934,0.084710779820606,0.08471779446839,0.084710779553571,0.745860646157433,0.084710779820606,NA,0.901486450033749,0.84603778176473,0.00717621477843317,-1.44908751245765e-09,-3.80654408751789e-05,1,-0.999961933110037
2,1,4,"blue_flower",3,0,0.663636363636364,0.64404,125,5,2,0,0,1,"trafficlight.jpg",1,4.67782881394057e-10,1.22879822378199e-05,0.677187970103547,0.322799741446432,0.12499885572927,0.125004736582187,0.319803958414847,0.430192449273696,0.12499885572927,NA,0.977647391576942,1.2473328979753,0.0270908426216395,-8.23321524053384e-10,-2.16274700635322e-05,0.568165495165319,-0.568143866871934
2,1,2,"red_flower",3,1,0.666666666666667,0.40177,126,5,3,0,0,1,"aquarium.jpg",3,2.65778092437114e-10,6.98160751273359e-06,0.81658934318856,0.183403674938149,0.119315329972724,0.119318519313832,0.520562587468606,0.240803563244838,0.520562587468606,NA,0.96542341802814,1.19002546298949,0.166477976075135,-4.67782881394057e-10,-1.22879822378199e-05,0.322812029896453,-0.322799741446432
2,1,4,"red_flower",3,1,0.669642857142857,0.414385,127,5,4,0,0,1,"dolphin01.jpg",3,1.51005941493627e-10,3.9667084895222e-06,0.895792393354132,0.104203639786373,0.106396533983654,0.106398149846716,0.628643352648059,0.158561963521572,0.628643352648059,NA,0.939562589502558,1.06060235740887,0.327248210249413,-2.65778092437114e-10,-6.98160751273359e-06,0.18341065681144,-0.183403674938149
2,1,2,"red_flower",3,1,0.672566371681416,0.867525,128,5,5,0,0,1,"battleaxe.jpg",3,8.57963655216318e-11,2.25374689312585e-06,0.940792833570057,0.059204912597253,0.097333926245744,0.0973347661209224,0.683232576818695,0.122098730814638,0.683232576818695,NA,0.922888709441153,0.970522271313655,0.429509617729677,-1.51005941493627e-10,-3.9667084895222e-06,0.104207606645868,-0.104203639786373
2,1,4,"red_flower",3,1,0.675438596491228,0.735255,129,5,6,0,0,1,"cookingpot.jpg",3,4.87465344999827e-11,1.28050121951015e-06,0.966360530967996,0.0336381884820377,0.0919215186724784,0.0919219693249334,0.711599942228719,0.104556569773869,0.711599942228719,NA,0.913462861900205,0.917006785946343,0.486188262192962,-8.57963655216318e-11,-2.25374689312585e-06,0.0592071664299426,-0.059204912597253
2,1,2,"red_flower",3,1,0.678260869565217,0.729045,130,5,7,0,0,1,"star.jpg",3,2.7696098911776e-11,7.27536609442781e-07,0.980887214420333,0.0191120580153613,0.0888093244227425,0.0888095717987137,0.726829405056289,0.0955516987222551,0.726829405056289,NA,0.908214249141155,0.886330429911406,0.517211762648189,-4.87465344999827e-11,-1.28050121951015e-06,0.0336394690320039,-0.0336381884820377
2,2,4,"red_flower",2,0,0.672413793103448,0.49439,131,5,8,0,0,1,"bacon.jpg",3,0.568143866871934,0.431834504834681,8.23321265376052e-10,2.16274700635322e-05,0.745860646157433,0.084710779553571,0.0847107798206059,0.08471779446839,0.0847107798206059,NA,0.901486450033749,0.84603778176473,0.00717621477843317,-0.999961933110037,1,-1.44908705717247e-09,-3.80654408751789e-05
2,2,3,"green_flower",2,1,0.675213675213675,0.49395,132,5,9,0,0,1,"golfball.jpg",2,0.322799741446432,0.677187970103547,4.67782734422522e-10,1.22879822378199e-05,0.430192449273696,0.319803958414847,0.12499885572927,0.125004736582187,0.319803958414847,NA,0.977647391576942,1.2473328979753,0.0270908426216395,-0.568143866871934,0.568165495165319,-8.23321265376052e-10,-2.16274700635322e-05
2,2,5,"green_flower",2,1,0.677966101694915,0.80376,133,5,10,0,0,1,"cuttlefish.jpg",2,0.183403674938149,0.81658934318856,2.65778008932959e-10,6.98160751273359e-06,0.240803563244838,0.520562587468606,0.119315329972724,0.119318519313832,0.520562587468606,NA,0.96542341802814,1.19002546298949,0.166477976075135,-0.322799741446432,0.322812029896453,-4.67782734422522e-10,-1.22879822378199e-05
2,2,2,"green_flower",2,1,0.680672268907563,1.12459,134,5,11,0,0,1,"tent.jpg",2,0.104203639786373,0.895792393354132,1.51005894049447e-10,3.9667084895222e-06,0.158561963521572,0.628643352648059,0.106396533983654,0.106398149846716,0.628643352648059,NA,0.939562589502558,1.06060235740887,0.327248210249413,-0.183403674938149,0.18341065681144,-2.65778008932959e-10,-6.98160751273359e-06
2,1,2,"red_flower",3,1,0.683333333333333,0.84781,135,5,12,0,0,1,"chipmunk.jpg",3,1.57359677523569e-11,4.13361197954955e-07,0.98914077471714,0.0108588119059261,0.0870369888674489,0.087037126612942,0.735193971098828,0.0907319134207814,0.735193971098828,NA,0.905279584901096,0.86889192150158,0.534360596614731,-2.7696098911776e-11,-7.27536609442781e-07,0.0191127855796669,-0.0191120580153613
2,2,5,"red_flower",2,0,0.677685950413223,1.465835,136,5,13,0,1,1,"artichoke01b.jpg",3,0.059204912597253,0.940792833570057,8.57963385654861e-11,2.25374689312585e-06,0.122098730814638,0.683232576818695,0.097333926245744,0.0973347661209224,0.097333926245744,NA,0.922888709441153,0.970522271313655,0.429509617729677,-0.104203639786373,0.104207606645868,-1.51005894049447e-10,-3.9667084895222e-06
2,2,3,"green_flower",2,1,0.680327868852459,0.783045,137,5,14,0,1,1,"ipad02.jpg",2,0.0336381884820377,0.966360530967996,4.87465191844308e-11,1.28050121951015e-06,0.104556569773869,0.711599942228719,0.0919215186724784,0.0919219693249334,0.711599942228719,NA,0.913462861900205,0.917006785946343,0.486188262192962,-0.059204912597253,0.0592071664299426,-8.57963385654861e-11,-2.25374689312585e-06
2,2,2,"red_flower",2,0,0.67479674796748,1.029815,138,5,15,0,1,1,"cloud.jpg",3,0.0191120580153613,0.980887214420333,2.76960902100079e-11,7.27536609442781e-07,0.0955516987222551,0.726829405056289,0.0888093244227425,0.0888095717987137,0.0888093244227425,NA,0.908214249141155,0.886330429911406,0.517211762648189,-0.0336381884820377,0.0336394690320039,-4.87465191844308e-11,-1.28050121951015e-06
2,1,5,"red_flower",3,1,0.67741935483871,0.53785,139,5,16,0,1,1,"butterfly4.jpg",3,8.94063390992334e-12,2.34857569718207e-07,0.993830162890052,0.00616960224343755,0.0860300225982878,0.08603009995505,0.739853458706966,0.0880864187396967,0.739853458706966,NA,0.903629509137991,0.858994113652653,0.543935802337977,-1.57359677523569e-11,-4.13361197954955e-07,0.01085922528286,-0.0108588119059261
2,2,4,"green_flower",2,1,0.68,0.57826,140,5,17,0,1,1,"lionstatue.jpg",2,0.0108588119059261,0.98914077471714,1.57359628083125e-11,4.13361197954955e-07,0.0907319134207814,0.735193971098828,0.0870369888674489,0.087037126612942,0.735193971098828,NA,0.905279584901096,0.86889192150158,0.534360596614731,-0.0191120580153613,0.0191127855796669,-2.76960902100079e-11,-7.27536609442781e-07
2,1,5,"red_flower",3,1,0.682539682539683,0.570575,141,5,18,0,1,1,"ironingboard01.jpg",3,5.07975969252344e-12,1.33437967392268e-07,0.996494511443337,0.00350535511361576,0.0854581368708867,0.0854581805301535,0.742470861844861,0.0866128207540984,0.742470861844861,NA,0.902697905366198,0.853376081245949,0.549319635125062,-8.94063390992334e-12,-2.34857569718207e-07,0.0061698371099479,-0.00616960224343755
2,2,3,"red_flower",2,0,0.677165354330709,0.92147,142,5,19,1,1,1,"cork02.jpg",3,0.00616960224343755,0.993830162890052,8.94063110088791e-12,2.34857569718207e-07,0.0880864187396967,0.739853458706966,0.0860300225982878,0.08603009995505,0.0860300225982878,NA,0.903629509137991,0.858994113652653,0.543935802337977,-0.0108588119059261,0.01085922528286,-1.57359628083125e-11,-4.13361197954955e-07
2,1,4,"red_flower",3,1,0.6796875,0.63404,143,5,20,1,1,1,"hockeystick.jpg",3,2.88614418102341e-12,7.5814848817282e-08,0.998008302358407,0.00199162182385778,0.0851333294707763,0.0851333541821816,0.743948323341151,0.0857849930058907,0.743948323341151,NA,0.902170565198071,0.850186309676856,0.552359952799144,-5.07975969252344e-12,-1.33437967392268e-07,0.00350548855666288,-0.00350535511361576
2,2,3,"red_flower",2,0,0.674418604651163,1.846125,144,5,21,1,1,1,"asianelephant.jpg",3,0.00350535511361576,0.996494511443337,5.07975809652643e-12,1.33437967392268e-07,0.0866128207540984,0.742470861844861,0.0854581368708867,0.0854581805301535,0.0854581368708867,NA,0.902697905366198,0.853376081245949,0.549319635125062,-0.00616960224343755,0.0061698371099479,-8.94063110088791e-12,-2.34857569718207e-07
2,1,5,"red_flower",3,1,0.676923076923077,0.46506,145,5,22,1,1,1,"jeans01.jpg",3,1.63980753772967e-12,4.30753811191548e-08,0.998868386123245,0.00113157079973421,0.0849488308142343,0.0849488448239738,0.744784651608347,0.0853176727534451,0.744784651608347,NA,0.901871592974769,0.848374774922906,0.554081292814253,-2.88614418102341e-12,-7.5814848817282e-08,0.00199169764159268,-0.00199162182385778
2,2,4,"blue_flower",2,0,0.67175572519084,0.496185,146,5,23,1,1,1,"hockeypuck.jpg",1,0.00199162182385778,0.998008302358407,2.88614327423298e-12,7.5814848817282e-08,0.0857849930058907,0.743948323341151,0.0851333294707763,0.0851333541821816,0.0857849930058907,NA,0.902170565198071,0.850186309676856,0.552359952799144,-0.00350535511361576,0.00350548855666288,-5.07975809652643e-12,-1.33437967392268e-07
2,2,2,"green_flower",2,1,0.674242424242424,1.40526,147,5,24,1,1,1,"lantern03.jpg",2,0.00113157079973421,0.998868386123245,1.63980702252264e-12,4.30753811191548e-08,0.0853176727534451,0.744784651608347,0.0849488308142343,0.0849488448239738,0.744784651608347,NA,0.901871592974769,0.848374774922906,0.554081292814253,-0.00199162182385778,0.00199169764159268,-2.88614327423298e-12,-7.5814848817282e-08
2,2,2,"green_flower",2,1,0.676691729323308,0.915635,148,5,25,1,2,1,"monarchbutterfly.jpg",2,0.000642919483745607,0.999357056041377,9.31681768927143e-13,2.44739452429995e-08,0.0850531300460396,0.745258819686396,0.0848440211587676,0.0848440291087971,0.745258819686396,NA,0.901701937036016,0.847345789516834,0.55505733037818,-0.00113157079973421,0.00113161387675509,-1.63980702252264e-12,-4.30753811191548e-08
2,2,3,"green_flower",2,1,0.67910447761194,1.775295,149,5,26,1,2,1,"tulip02.jpg",2,0.000365284666833754,0.999634701427386,5.29349433578991e-13,1.39052512176377e-08,0.0849031393479621,0.745527901379082,0.0847844773795966,0.0847844818933589,0.745527901379082,NA,0.901605612422955,0.846761243840116,0.55561124382505,-0.000642919483745607,0.000642943958622522,-9.31681768927143e-13,-2.44739452429995e-08
2,1,3,"red_flower",3,1,0.681481481481481,0.597195,150,5,27,1,2,1,"jellyfish.jpg",3,9.31682061650002e-13,2.44739452429995e-08,0.999357056041377,0.000642919483745607,0.0848440211587676,0.0848440291087971,0.745258819686396,0.0850531300460396,0.745258819686396,NA,0.901701937036016,0.847345789516834,0.55505733037818,-1.63980753772967e-12,-4.30753811191548e-08,0.00113161387675509,-0.00113157079973421
2,2,5,"green_flower",2,1,0.683823529411765,0.9263,151,5,28,1,2,1,"callbell.jpg",2,0.000207542143607899,0.999792449955607,3.00758083044889e-13,7.90048394346729e-09,0.0848180208474947,0.74568067966141,0.0847506484637773,0.0847506510273181,0.74568067966141,NA,0.901550906123677,0.846429154110277,0.555925752206899,-0.000365284666833754,0.000365298572614359,-5.29349433578991e-13,-1.39052512176377e-08
2,1,4,"yellow_flower",3,0,0.678832116788321,0.627615,152,5,29,1,2,1,"basketball01.jpg",4,5.29349599894019e-13,1.39052512176377e-08,0.999634701427386,0.000365284666833754,0.0847844773795966,0.0847844818933589,0.745527901379082,0.0849031393479621,0.0849031393479621,NA,0.901605612422955,0.846761243840116,0.55561124382505,-9.31682061650002e-13,-2.44739452429995e-08,0.000642943958622522,-0.000642919483745607
2,2,4,"green_flower",2,1,0.681159420289855,0.88368,153,5,30,1,2,1,"jokercard.jpg",2,0.000117918284790654,0.999882077226256,1.70880365178171e-13,4.48878237178575e-09,0.0847696920486475,0.745767449231069,0.0847314286320493,0.0847314300882344,0.745767449231069,NA,0.901519831011851,0.846240481611967,0.556104378411979,-0.000207542143607899,0.000207550044392657,-3.00758083044889e-13,-7.90048394346729e-09
2,1,3,"red_flower",3,1,0.683453237410072,0.80648,154,5,31,1,2,1,"soccerball.jpg",3,3.00758177539349e-13,7.90048394346729e-09,0.999792449955607,0.000207542143607899,0.0847506484637773,0.0847506510273181,0.74568067966141,0.0848180208474947,0.74568067966141,NA,0.901550906123677,0.846429154110277,0.555925752206899,-5.29349599894019e-13,-1.39052512176377e-08,0.000365298572614359,-0.000365284666833754
2,1,4,"green_flower",3,0,0.678571428571429,0.89003,155,5,32,1,2,1,"butterfly2.jpg",2,1.70880418866663e-13,4.48878237178575e-09,0.999882077226256,0.000117918284790654,0.0847314286320493,0.0847314300882344,0.745767449231069,0.0847696920486475,0.0847314300882344,NA,0.901519831011851,0.846240481611967,0.556104378411979,-3.00758177539349e-13,-7.90048394346729e-09,0.000207550044392657,-0.000207542143607899
2,2,2,"green_flower",2,1,0.680851063829787,0.863775,156,5,33,1,2,1,"eyepatch.jpg",2,6.69971006671269e-05,0.999933000348865,9.70883272954864e-14,2.55037125895501e-09,0.0847422438113938,0.745816737803083,0.0847205087791377,0.0847205096063852,0.745816737803083,NA,0.901502177505876,0.846133287466645,0.556205846145242,-0.000117918284790654,0.000117922773743895,-1.70880365178171e-13,-4.48878237178575e-09
2,1,3,"red_flower",3,1,0.683098591549296,1.72846,157,5,34,1,2,1,"cashregister01.jpg",3,9.7088357799435e-14,2.55037125895501e-09,0.999933000348865,6.69971006671269e-05,0.0847205087791377,0.0847205096063852,0.745816737803083,0.0847422438113938,0.745816737803083,NA,0.901502177505876,0.846133287466645,0.556205846145242,-1.70880418866663e-13,-4.48878237178575e-09,0.000117922773743895,-0.000117918284790654
2,1,2,"green_flower",3,0,0.678321678321678,0.887335,158,5,35,1,2,1,"balcony02.jpg",2,5.51622548839037e-14,1.44903294919957e-09,0.999961933110037,3.80654408751789e-05,0.0847143045578569,0.0847143050278359,0.745844738349357,0.0847266520649504,0.0847143050278359,NA,0.901492148135845,0.846072384441894,0.556263489663312,-9.7088357799435e-14,-2.55037125895501e-09,6.69996511354354e-05,-6.69971006671269e-05
2,2,3,"green_flower",2,1,0.680555555555556,1.71096,159,5,36,1,2,1,"fingerprint.jpg",2,3.80654408751789e-05,0.999961933110037,5.51622375526126e-14,1.44903294919957e-09,0.0847266520649504,0.745844738349357,0.0847143045578569,0.0847143050278359,0.745844738349357,NA,0.901492148135845,0.846072384441894,0.556263489663312,-6.69971006671269e-05,6.69996511354354e-05,-9.70883272954864e-14,-2.55037125895501e-09
3,1,5,"red_flower",1,0,0,2.06,1,0,1,0,0,1,"toolbox02.jpg",3,0.277063047250748,0,0,0,0.25,0.25,0.25,0.25,0.25,NA,1,1.38629436111989,0.25,1,0,0,0
3,2,2,"blue_flower",3,0,0,0.778,2,0,2,0,0,1,"wheat.jpg",1,0,0,0.277063047250748,0,0.25,0.25,0.25,0.25,0.25,NA,1,1.38629436111989,0.25,0,0,1,0
3,2,5,"red_flower",3,1,0.333333333333333,1.135,3,0,3,0,0,1,"corn02.jpg",3,0,0,0.477362162349626,0,0.182099865476309,0.182099865476309,0.453700403571072,0.182099865476309,0.453700403571072,NA,0.981892225311854,1.28902517712508,0.113425100892768,0,0,0.722936952749252,0
3,2,5,"red_flower",3,1,0.5,0.854,4,0,4,0,0,1,"marble.jpg",3,0,0,0.622165794257581,0,0.127872200756753,0.127872200756753,0.616383397729741,0.127872200756753,0.616383397729741,NA,0.943698212164845,1.08725281643444,0.279653396304492,0,0,0.522637837650374,0
3,1,4,"green_flower",1,0,0.4,0.63,5,0,5,0,0,1,"skunk.jpg",2,0.477362162349626,0,0,0,0.453700403571072,0.182099865476309,0.182099865476309,0.182099865476309,0.182099865476309,NA,0.981892225311854,1.28902517712508,0.113425100892768,0.722936952749252,0,0,0
3,1,2,"yellow_flower",1,0,0.333333333333333,0.957,6,0,6,0,1,1,"tire.jpg",4,0.622165794257581,0,0,0,0.616383397729741,0.127872200756753,0.127872200756753,0.127872200756753,0.127872200756753,NA,0.943698212164845,1.08725281643444,0.279653396304492,0.522637837650374,0,0,0
3,1,4,"blue_flower",1,1,0.428571428571429,1.559,7,0,7,0,1,1,"tennisracket.jpg",1,0.726849690656142,0,0,0,0.72138300146255,0.0928723328458167,0.0928723328458167,0.0928723328458167,0.72138300146255,NA,0.910119828398393,0.897734435516127,0.444648505505965,0.377834205742419,0,0,0
3,1,4,"blue_flower",1,1,0.5,0.499,8,0,8,0,1,1,"foosballtable.jpg",1,0.802529547720436,0,0,0,0.785203206570257,0.0715989311432478,0.0715989311432478,0.0715989311432478,0.785203206570257,NA,0.887069202062077,0.75622149715176,0.566432245913671,0.273150309343858,0,0,0
3,1,2,"blue_flower",1,1,0.555555555555556,0.595,9,0,9,1,1,1,"birdfeeder.jpg",1,0.857241312970995,0,0,0,0.824277915222638,0.0585740282591206,0.0585740282591206,0.0585740282591206,0.824277915222638,NA,0.872162281083662,0.657894740549505,0.647225662137862,0.197470452279564,0,0,0
3,2,5,"red_flower",3,1,0.6,0.752,10,0,10,1,1,1,"shed02.jpg",3,0,0,0.726849690656142,0,0.0928723328458167,0.0928723328458167,0.72138300146255,0.0928723328458167,0.72138300146255,NA,0.910119828398393,0.897734435516127,0.444648505505965,0,0,0.377834205742419,0
3,1,2,"blue_flower",1,1,0.636363636363636,1.646,11,0,11,1,2,1,"firehydrant.jpg",1,0.896794469820767,0,0,0,0.8488835460446,0.0503721513184666,0.0503721513184666,0.0503721513184666,0.8488835460446,NA,0.862511291140661,0.590659205184156,0.699715959600443,0.142758687029005,0,0,0
3,1,5,"blue_flower",1,1,0.666666666666667,1.214,12,0,12,1,2,1,"motorcycle.jpg",1,0.925388908505354,0,0,0,0.864852601299949,0.0450491329000171,0.0450491329000171,0.0450491329000171,0.864852601299949,NA,0.856150140023292,0.544530446804558,0.734159142997397,0.103205530179233,0,0,0
3,2,3,"red_flower",3,1,0.692307692307692,0.744,13,0,13,1,2,1,"shelf.jpg",3,0,0,0.802529547720436,0,0.0715989311432478,0.0715989311432478,0.785203206570257,0.0715989311432478,0.785203206570257,NA,0.887069202062077,0.75622149715176,0.566432245913671,0,0,0.273150309343858,0
3,2,4,"red_flower",3,1,0.714285714285714,2.007,14,0,14,1,2,1,"flipflop01b.jpg",3,0,0,0.857241312970995,0,0.0585740282591206,0.0585740282591206,0.824277915222638,0.0585740282591206,0.824277915222638,NA,0.872162281083662,0.657894740549505,0.647225662137862,0,0,0.197470452279564,0
3,2,4,"red_flower",3,1,0.733333333333333,0.593,15,0,15,1,2,1,"toucan.jpg",3,0,0,0.896794469820767,0,0.0503721513184666,0.0503721513184666,0.8488835460446,0.0503721513184666,0.8488835460446,NA,0.862511291140661,0.590659205184156,0.699715959600443,0,0,0.142758687029005,0
3,1,3,"blue_flower",1,1,1,1.24,16,2,1,0,0,1,"treestump.jpg",1,0.946060884873565,0,0,0,0.875491070629613,0.0415029764567956,0.0415029764567956,0.0415029764567956,0.875491070629613,NA,0.851872902198343,0.512600518148044,0.757170729848898,0.0746110914946455,0,0,0
3,1,5,"red_flower",1,0,0.5,0.906,17,2,2,0,0,1,"spicerack.jpg",3,0.961005420476504,0,0,0,0.882727745087511,0.0390907516374965,0.0390907516374965,0.0390907516374965,0.0390907516374965,NA,0.84894627298489,0.490291426710343,0.772820258621129,0.0539391151264347,0,0,0
3,2,2,"red_flower",3,1,0.666666666666667,0.996,18,2,3,0,0,1,"football.jpg",3,0,0,0.925388908505354,0,0.0450491329000171,0.0450491329000171,0.864852601299949,0.0450491329000171,0.864852601299949,NA,0.856150140023292,0.544530446804558,0.734159142997397,0,0,0.103205530179233,0
3,1,4,"blue_flower",1,1,0.75,0.627,19,2,4,0,0,1,"bowlingpin.jpg",1,0.971809377505546,0,0,0,0.887729771439393,0.0374234095202024,0.0374234095202024,0.0374234095202024,0.887729771439393,NA,0.846915581566857,0.474577084415414,0.783623699389746,0.0389945795234957,0,0,0
3,1,3,"blue_flower",1,1,0.8,0.487,20,2,5,0,0,1,"beerbottle.jpg",1,0.979619957277755,0,0,0,0.891228947045461,0.0362570176515131,0.0362570176515131,0.0362570176515131,0.891228947045461,NA,0.845491322396276,0.463435403393968,0.791170469460838,0.0281906224944544,0,0,0
3,1,4,"blue_flower",1,1,0.833333333333333,0.493,21,2,6,0,0,1,"key07.jpg",1,0.98526651401748,0,0,0,0.893698665424736,0.0354337781917547,0.0354337781917547,0.0354337781917547,0.893698665424736,NA,0.844484287996798,0.4554957714434,0.796490120562421,0.0203800427222454,0,0,0
3,2,5,"red_flower",3,1,0.857142857142857,1.105,22,2,7,0,0,1,"moon.jpg",3,0,0,0.946060884873565,0,0.0415029764567956,0.0415029764567956,0.875491070629613,0.0415029764567956,0.875491070629613,NA,0.851872902198343,0.512600518148044,0.757170729848898,0,0,0.0746110914946455,0
3,2,4,"red_flower",3,1,0.875,0.971,23,2,8,0,0,1,"exitsign.jpg",3,0,0,0.961005420476504,0,0.0390907516374965,0.0390907516374965,0.882727745087511,0.0390907516374965,0.882727745087511,NA,0.84894627298489,0.490291426710343,0.772820258621129,0,0,0.0539391151264347,0
3,1,5,"blue_flower",1,1,0.888888888888889,0.978,24,2,9,0,0,1,"wheelchair.jpg",1,0.989348618540423,0,0,0,0.89545322292429,0.0348489256919032,0.0348489256919032,0.0348489256919032,0.89545322292429,NA,0.843767973423282,0.449816299300058,0.800265350277717,0.0147334859825197,0,0,0
3,1,2,"blue_flower",1,1,0.9,0.873,25,2,10,0,0,1,"file.jpg",1,0.992299722745044,0,0,0,0.896705681309706,0.0344314395634312,0.0344314395634312,0.0344314395634312,0.896705681309706,NA,0.843256198160021,0.445742026248546,0.802957992343298,0.0106513814595766,0,0,0
3,2,2,"red_flower",3,1,0.909090909090909,1.23,26,2,11,0,0,1,"pirateflag.jpg",3,0,0,0.971809377505546,0,0.0374234095202024,0.0374234095202024,0.887729771439393,0.0374234095202024,0.887729771439393,NA,0.846915581566857,0.474577084415414,0.783623699389746,0,0,0.0389945795234957,0
3,2,3,"red_flower",3,1,0.916666666666667,1.239,27,2,12,0,0,1,"butterfly1.jpg",3,0,0,0.979619957277755,0,0.0362570176515131,0.0362570176515131,0.891228947045461,0.0362570176515131,0.891228947045461,NA,0.845491322396276,0.463435403393968,0.791170469460838,0,0,0.0281906224944544,0
3,1,3,"blue_flower",1,1,0.923076923076923,0.655,28,2,13,0,1,1,"seagull.jpg",1,0.994433185025978,0,0,0,0.897602844499021,0.0341323851669929,0.0341323851669929,0.0341323851669929,0.897602844499021,NA,0.842889374904078,0.442813135571158,0.804885570222025,0.00770027725495614,0,0,0
3,1,4,"blue_flower",1,1,0.928571428571429,1.867,29,2,14,0,1,1,"fluorescentlightbulb.jpg",1,0.995975543746161,0,0,0,0.898247131139193,0.0339176229536022,0.0339176229536022,0.0339176229536022,0.898247131139193,NA,0.842625828752156,0.440704390228091,0.806269179973625,0.00556681497402234,0,0,0
3,1,5,"blue_flower",1,1,0.933333333333333,1.586,30,2,15,0,1,1,"xylophone.jpg",1,0.997090571859377,0,0,0,0.898710668632332,0.0337631104558894,0.0337631104558894,0.0337631104558894,0.898710668632332,NA,0.842436158177014,0.439184427746247,0.807264279823178,0.00402445625383863,0,0,0
3,2,3,"red_flower",3,1,0.9375,1.417,31,2,16,0,1,1,"basketball01.jpg",3,0,0,0.98526651401748,0,0.0354337781917547,0.0354337781917547,0.893698665424736,0.0354337781917547,0.893698665424736,NA,0.844484287996798,0.4554957714434,0.796490120562421,0,0,0.0203800427222454,0
3,2,5,"blue_flower",3,0,0.882352941176471,0.853,32,2,17,0,1,1,"shelves.jpg",1,0,0,0.989348618540423,0,0.0348489256919032,0.0348489256919032,0.89545322292429,0.0348489256919032,0.0348489256919032,NA,0.843767973423282,0.449816299300058,0.800265350277717,0,0,0.0147334859825197,0
3,2,5,"red_flower",3,1,0.888888888888889,1.146,33,2,18,0,1,1,"cork02.jpg",3,0,0,0.992299722745044,0,0.0344314395634312,0.0344314395634312,0.896705681309706,0.0344314395634312,0.896705681309706,NA,0.843256198160021,0.445742026248546,0.802957992343298,0,0,0.0106513814595766,0
3,2,3,"red_flower",3,1,0.894736842105263,0.489,34,2,19,1,1,1,"cloud.jpg",3,0,0,0.994433185025978,0,0.0341323851669929,0.0341323851669929,0.897602844499021,0.0341323851669929,0.897602844499021,NA,0.842889374904078,0.442813135571158,0.804885570222025,0,0,0.00770027725495614,0
3,2,3,"red_flower",3,1,0.9,0.764,35,2,20,1,1,1,"beaver.jpg",3,0,0,0.995975543746161,0,0.0339176229536022,0.0339176229536022,0.898247131139193,0.0339176229536022,0.898247131139193,NA,0.842625828752156,0.440704390228091,0.806269179973625,0,0,0.00556681497402234,0
3,2,5,"blue_flower",3,0,0.857142857142857,0.703,36,2,21,1,1,1,"urinal.jpg",1,0,0,0.997090571859377,0,0.0337631104558894,0.0337631104558894,0.898710668632332,0.0337631104558894,0.0337631104558894,NA,0.842436158177014,0.439184427746247,0.807264279823178,0,0,0.00402445625383863,0
3,2,3,"red_flower",3,1,0.863636363636364,0.578,37,2,22,1,1,1,"tulip02.jpg",3,0,0,0.997896666885775,0,0.033651796929562,0.033651796929562,0.899044609211314,0.033651796929562,0.899044609211314,NA,0.842299485086309,0.438087957773607,0.807980981874594,0,0,0.00290942814062278,0
3,1,3,"blue_flower",1,1,0.869565217391304,0.483,38,2,23,1,1,1,"horse.jpg",1,0.997896666885775,0,0,0,0.899044609211314,0.033651796929562,0.033651796929562,0.033651796929562,0.899044609211314,NA,0.842299485086309,0.438087957773607,0.807980981874594,0.00290942814062278,0,0,0
3,2,5,"red_flower",3,1,0.875,0.54,39,2,24,1,1,1,"musicstand.jpg",3,0,0,0.998479422767786,0,0.0335715272737931,0.0335715272737931,0.899285418178621,0.0335715272737931,0.899285418178621,NA,0.842200912198193,0.437296516535945,0.808497707355831,0,0,0.00210333311422473,0
3,1,4,"blue_flower",1,1,0.88,1,40,2,25,1,2,1,"frisbee.jpg",1,0.998479422767786,0,0,0,0.899285418178621,0.0335715272737931,0.0335715272737931,0.0335715272737931,0.899285418178621,NA,0.842200912198193,0.437296516535945,0.808497707355831,0.00210333311422473,0,0,0
3,2,5,"red_flower",3,1,0.884615384615385,0.804,41,2,26,1,2,1,"footballhelmet.jpg",3,0,0,0.998900718529323,0,0.0335136033054575,0.0335136033054575,0.899459190083627,0.0335136033054575,0.899459190083627,NA,0.842129771924706,0.436725001251563,0.808870533888958,0,0,0.00152057723221422,0
3,1,3,"blue_flower",1,1,0.888888888888889,1,42,2,27,1,2,1,"soccerball.jpg",1,0.998900718529323,0,0,0,0.899459190083627,0.0335136033054575,0.0335136033054575,0.0335136033054575,0.899459190083627,NA,0.842129771924706,0.436725001251563,0.808870533888958,0.00152057723221422,0,0,0
3,2,3,"red_flower",3,1,0.892857142857143,0.743,43,2,28,1,2,1,"windshieldwiper02.jpg",3,0,0,0.999205288803375,0,0.0334717832294448,0.0334717832294448,0.899584650311665,0.0334717832294448,0.899584650311665,NA,0.842078405550169,0.436312169831685,0.809139680980994,0,0,0.00109928147067684,0
3,1,4,"blue_flower",1,1,0.896551724137931,1.413,44,2,29,1,2,1,"windturbine.jpg",1,0.999205288803375,0,0,0,0.899584650311665,0.0334717832294448,0.0334717832294448,0.0334717832294448,0.899584650311665,NA,0.842078405550169,0.436312169831685,0.809139680980994,0.00109928147067684,0,0,0
3,2,4,"red_flower",3,1,0.9,1.919,45,2,30,1,2,1,"butterfly2.jpg",3,0,0,0.999425473909196,0,0.0334415788298183,0.0334415788298183,0.899675263510545,0.0334415788298183,0.899675263510545,NA,0.84204130409794,0.436013895460339,0.809334057319189,0,0,0.000794711196624776,0
3,1,3,"blue_flower",1,1,0.903225806451613,0.892,46,2,31,1,2,1,"blender.jpg",1,0.999425473909196,0,0,0,0.899675263510545,0.0334415788298183,0.0334415788298183,0.0334415788298183,0.899675263510545,NA,0.84204130409794,0.436013895460339,0.809334057319189,0.000794711196624776,0,0,0
3,1,2,"blue_flower",1,1,0.90625,0.817,47,2,32,1,2,1,"rockingchair.jpg",1,0.999584653858639,0,0,0,0.899740725888096,0.0334197580373014,0.0334197580373014,0.0334197580373014,0.899740725888096,NA,0.842014499430204,0.435798354259725,0.809474474654542,0.000574526090803662,0,0,0
3,1,4,"blue_flower",1,1,0.909090909090909,0.925,48,2,33,1,2,1,"desktopcomputer.jpg",1,0.999699730926229,0,0,0,0.899788027419453,0.0334039908601824,0.0334039908601824,0.0334039908601824,0.899788027419453,NA,0.841995130406713,0.435642579836116,0.809575932935796,0.000415346141360518,0,0,0
3,2,5,"red_flower",3,1,0.911764705882353,0.761,49,2,34,1,2,1,"tricycle.jpg",3,0,0,0.999584653858639,0,0.0334197580373014,0.0334197580373014,0.899740725888096,0.0334197580373014,0.899740725888096,NA,0.842014499430204,0.435798354259725,0.809474474654542,0,0,0.000574526090803662,0
3,2,4,"red_flower",3,1,0.914285714285714,1.084,50,2,35,1,2,1,"dreamcatcher.jpg",3,0,0,0.999699730926229,0,0.0334039908601824,0.0334039908601824,0.899788027419453,0.0334039908601824,0.899788027419453,NA,0.841995130406713,0.435642579836116,0.809575932935796,0,0,0.000415346141360518,0
3,1,5,"blue_flower",1,1,0.916666666666667,0.594,51,2,36,1,2,1,"contactlens.jpg",1,0.999782924390803,0,0,0,0.89982221109288,0.0333925963023732,0.0333925963023732,0.0333925963023732,0.89982221109288,NA,0.841981132558612,0.435529989980158,0.809649252347473,0.000300269073771342,0,0,0
3,1,5,"blue_flower",2,0,0.891891891891892,0.973,52,3,1,0,0,1,"sailboat.jpg",1,0.722780020769822,0.277063047250748,0,0,0.899846917279669,0.033384360906777,0.033384360906777,0.033384360906777,0.899846917279669,NA,0.841971015471101,0.435448607799818,0.00111479048657274,-0.999782924390803,1,0,0
3,1,5,"blue_flower",2,0,0.868421052631579,0.454,53,3,2,0,0,1,"asianelephant.jpg",1,0.522524385723376,0.477362162349626,0,0,0.706670601560085,0.162713833674757,0.0653077823825789,0.0653077823825789,0.706670601560085,NA,0.913411805391757,0.89720243451445,0.00543209734792337,-0.722780020769822,0.722936952749252,0,0
3,2,4,"red_flower",4,0,0.846153846153846,0.672,54,3,3,0,0,1,"triangle.jpg",3,0,0,0.722719877140054,0.277063047250748,0.0333925963023732,0.0333925963023732,0.89982221109288,0.0333925963023732,0.89982221109288,NA,0.841981132558612,0.435529989980158,0.00111544598168224,0,0,-0.999699730926229,1
3,1,3,"blue_flower",2,0,0.825,1.211,55,3,4,0,0,1,"redonion.jpg",1,0.377752187152032,0.622165794257581,0,0,0.45059574190376,0.388295916752559,0.0805541706718407,0.0805541706718407,0.45059574190376,NA,0.962529314384285,1.13233491903605,0.0631811172150631,-0.522524385723376,0.522637837650374,0,0
3,2,5,"red_flower",4,0,0.804878048780488,0.527,56,3,5,0,0,1,"acorn.jpg",3,0,0,0.522480905670945,0.477362162349626,0.0653169282591779,0.0653169282591779,0.706629522926221,0.162736620555423,0.706629522926221,NA,0.913425224554791,0.897279455568844,0.00543419827381974,0,0,-0.722719877140054,0.722936952749252
3,1,3,"blue_flower",2,0,0.785714285714286,0.583,57,3,6,0,0,1,"communitymailbox.jpg",1,0.273091015074055,0.726849690656142,0,0,0.262228143640468,0.586704711371984,0.0755335724937739,0.0755335724937739,0.262228143640468,NA,0.945061478587903,1.05408697626267,0.22781504376523,-0.377752187152032,0.377834205742419,0,0
3,1,3,"blue_flower",2,0,0.767441860465116,0.802,58,3,7,0,0,1,"handheldtelescope.jpg",1,0.197427586260837,0.802529547720436,0,0,0.15941474564992,0.710932224500915,0.0648265149245827,0.0648265149245827,0.15941474564992,NA,0.912064060202094,0.890015202337332,0.417107285580852,-0.273091015074055,0.273150309343858,0,0
3,2,2,"red_flower",4,0,0.75,1.264,59,3,8,0,0,1,"callbell.jpg",3,0,0,0.377720753815422,0.622165794257581,0.080559370608511,0.080559370608511,0.450560276733867,0.388320982049111,0.450560276733867,NA,0.962532655207339,1.13235655112856,0.0631940443094356,0,0,-0.522480905670945,0.522637837650374
3,1,3,"green_flower",2,1,0.755555555555556,0.488,60,3,9,0,0,1,"candycane01a.jpg",2,0.14272769760005,0.857241312970995,0,0,0.106537285756387,0.782283053083849,0.0555898305798817,0.0555898305798817,0.782283053083849,NA,0.887705957725353,0.75192741071147,0.556150231118268,-0.197427586260837,0.197470452279564,0,0
3,2,2,"yellow_flower",4,1,0.760869565217391,0.692,61,3,10,0,0,1,"coffeemaker.jpg",4,0,0,0.273068290753471,0.726849690656142,0.0755356238215958,0.0755356238215958,0.262208107358783,0.586720644998025,0.586720644998025,NA,0.945058856048825,1.05407925008839,0.227835937054121,0,0,-0.377720753815422,0.377834205742419
3,1,3,"yellow_flower",2,0,0.74468085106383,0.904,62,3,11,0,0,1,"electricguitar01.jpg",4,0.103183126775897,0.896794469820767,0,0,0.0782500140609411,0.823963195389517,0.0488933952747711,0.0488933952747711,0.0488933952747711,NA,0.872138774981555,0.654044098293153,0.644572444118035,-0.14272769760005,0.142758687029005,0,0
3,2,3,"yellow_flower",4,1,0.75,0.986,63,3,12,0,0,1,"weddingcake.jpg",4,0,0,0.197411158009761,0.802529547720436,0.0648272886679752,0.0648272886679752,0.159404712760027,0.710940709904023,0.710940709904023,NA,0.912061546014408,0.890003908128715,0.417123591870243,0,0,-0.273068290753471,0.273150309343858
3,2,3,"yellow_flower",4,1,0.755102040816326,0.682,64,3,13,0,1,1,"balcony02.jpg",4,0,0,0.142715821010278,0.857241312970995,0.0555901511440794,0.0555901511440794,0.106532133516218,0.782287564195623,0.782287564195623,NA,0.887704373423677,0.751918833721647,0.556160076238326,0,0,-0.197411158009761,0.197470452279564
3,2,4,"yellow_flower",4,1,0.76,0.54,65,3,14,0,1,1,"cashregister01.jpg",4,0,0,0.103174540750278,0.896794469820767,0.0488935449862722,0.0488935449862722,0.0782471916639018,0.823965718363554,0.823965718363554,NA,0.872137825400741,0.654038299418594,0.644578134799321,0,0,-0.142715821010278,0.142758687029005
3,1,3,"green_flower",2,1,0.764705882352941,0.491,66,3,15,0,1,1,"doubledoors.jpg",2,0.0745948952465064,0.925388908505354,0,0,0.0621561912825654,0.849359569718474,0.0442421194994805,0.0442421194994805,0.849359569718474,NA,0.8622697155193,0.587254373485697,0.699841025099898,-0.103183126775897,0.103205530179233,0,0
3,1,3,"green_flower",2,1,0.769230769230769,0.624,67,3,16,0,1,1,"butterfly3.jpg",2,0.053927406260159,0.946060884873565,0,0,0.0524598027657496,0.865483106744166,0.0410285452450421,0.0410285452450421,0.865483106744166,NA,0.85587622830218,0.541718568318595,0.735106359142833,-0.0745948952465064,0.0746110914946455,0,0
3,1,4,"blue_flower",2,0,0.754716981132076,0.838,68,3,17,0,1,1,"waterfountain02.jpg",1,0.0389861147513902,0.961005420476504,0,0,0.0463395789924432,0.876068696861609,0.0387958620729739,0.0387958620729739,0.0463395789924432,NA,0.851630627772761,0.51038711844861,0.758222657481098,-0.053927406260159,0.0539391151264347,0,0
3,2,3,"yellow_flower",4,1,0.759259259259259,1.375,69,3,18,0,1,1,"panda.jpg",4,0,0,0.0745886880913093,0.925388908505354,0.0442421972929382,0.0442421972929382,0.0621545422179745,0.849361063196149,0.849361063196149,NA,0.862269134152133,0.587250521164252,0.699844398586447,0,0,-0.103174540750278,0.103205530179233
3,1,5,"green_flower",2,1,0.763636363636364,1.566,70,3,19,1,1,1,"greywolf.jpg",2,0.0281845029979027,0.971809377505546,0,0,0.0423358168704484,0.883199336877217,0.0372324231261673,0.0372324231261673,0.883199336877217,NA,0.84875091811194,0.488600397873384,0.773743292127061,-0.0389861147513902,0.0389945795234957,0,0
3,1,3,"yellow_flower",2,0,0.75,2.1,71,3,20,1,1,1,"forklift.jpg",4,0.0203756187120559,0.979619957277755,0,0,0.0396453904916997,0.888095522456264,0.0361295435260183,0.0361295435260183,0.0361295435260183,NA,0.846764882112896,0.473308951339742,0.784365376516998,-0.0281845029979027,0.0281906224944544,0,0
3,2,4,"green_flower",4,0,0.736842105263158,0.684,72,3,21,1,1,1,"barrel01.jpg",2,0,0,0.0539229188782955,0.946060884873565,0.0410285892637568,0.0410285892637568,0.0524587861686153,0.865484035303871,0.0410285892637568,NA,0.855875860118502,0.541715986969662,0.735108440404989,0,0,-0.0745886880913093,0.0746110914946455
3,2,2,"yellow_flower",4,1,0.741379310344828,0.567,73,3,22,1,1,1,"fingerprint.jpg",4,0,0,0.0389828706572201,0.961005420476504,0.0387958886534994,0.0387958886534994,0.0463389256033005,0.876069297089701,0.876069297089701,NA,0.851630387162413,0.510385363550277,0.75822399045102,0,0,-0.0539229188782955,0.0539391151264347
3,2,4,"yellow_flower",4,1,0.745762711864407,1.852,74,3,23,1,1,1,"bacon.jpg",4,0,0,0.0281821577223489,0.971809377505546,0.0372324399744845,0.0372324399744845,0.0423353835107977,0.883199736540233,0.883199736540233,NA,0.848750756799976,0.488599188056262,0.773744172380611,0,0,-0.0389828706572201,0.0389945795234957
3,1,3,"green_flower",2,1,0.75,1.563,75,3,24,1,1,1,"witchhat.jpg",2,0.0147302877020743,0.98526651401748,0,0,0.0378012709646272,0.891505114496162,0.0353468072696056,0.0353468072696056,0.891505114496162,NA,0.845377830769805,0.462495608131981,0.7917417004309,-0.0203756187120559,0.0203800427222454,0,0
3,1,5,"yellow_flower",2,0,0.737704918032787,0.865,76,3,25,1,2,1,"hotdog.jpg",4,0.0106490693044574,0.989348618540423,0,0,0.0365187144701245,0.893904017019782,0.034788634255047,0.034788634255047,0.034788634255047,NA,0.844400014997261,0.454804673075509,0.796920003041799,-0.0147302877020743,0.0147334859825197,0,0
3,2,5,"yellow_flower",4,1,0.741935483870968,1.447,77,3,26,1,2,1,"jeans01.jpg",4,0,0,0.0203739232256937,0.979619957277755,0.0361295545943831,0.0361295545943831,0.0396450962849633,0.888095794526271,0.888095794526271,NA,0.846764771807934,0.47330810750019,0.784365971748091,0,0,-0.0281821577223489,0.0281906224944544
3,1,3,"green_flower",2,1,0.746031746031746,0.486,78,3,27,1,2,1,"shovel01.jpg",2,0.00769860571258003,0.992299722745044,0,0,0.0356171908285248,0.895604496018888,0.0343891565762937,0.0343891565762937,0.895604496018888,NA,0.843705941892801,0.449310707956782,0.800584456652261,-0.0106490693044574,0.0106513814595766,0,0
3,1,1,NA,2,0,0.734375,NA,79,3,28,1,2,1,"skihelmet01.jpg",NA,0.00556560655427058,0.994433185025978,0,0,0.0349785819563558,0.896816454487105,0.0341024817782696,0.0341024817782696,NA,NA,0.843210795290418,0.445373448367728,0.80319284874237,-0.00769860571258003,0.00770027725495614,0,0
3,2,2,"yellow_flower",4,1,0.738461538461539,1.019,80,3,29,1,2,1,"duck01.jpg",4,0,0,0.0147290619723302,0.98526651401748,0.0353468147338479,0.0353468147338479,0.0378010677755696,0.891505302756735,0.891505302756735,NA,0.845377754214004,0.462495014123205,0.791742110176126,0,0,-0.0203739232256937,0.0203800427222454
3,1,4,"green_flower",2,1,0.742424242424242,0.726,81,3,30,1,2,1,"vacuumcleaner01.jpg",2,0.00402358264254564,0.995975543746161,0,0,0.0345236661737641,0.897683642355223,0.0338963457355063,0.0338963457355063,0.897683642355223,NA,0.842856267661632,0.442545094560215,0.805057461388082,-0.00556560655427058,0.00556681497402234,0,0
3,2,4,"yellow_flower",4,1,0.746268656716418,1.626,82,3,31,1,2,1,"chime.jpg",4,0,0,0.0106481831791313,0.989348618540423,0.0347886393858191,0.0347886393858191,0.0365185723719062,0.893904148856456,0.893904148856456,NA,0.844399961275616,0.454804251989428,0.796920288861776,0,0,-0.0147290619723302,0.0147334859825197
3,2,2,"yellow_flower",4,1,0.75,0.807,83,3,32,1,2,1,"chipmunk.jpg",4,0,0,0.007697965099837,0.992299722745044,0.0343891601524105,0.0343891601524105,0.0356170905426796,0.895604589152499,0.895604589152499,NA,0.843705903887704,0.449310407882378,0.8005846579783,0,0,-0.0106481831791313,0.0106513814595766
3,2,4,"yellow_flower",4,1,0.753623188405797,1.054,84,3,33,1,2,1,"butterfly4.jpg",4,0,0,0.00556514343164625,0.994433185025978,0.0341024842960583,0.0341024842960583,0.0349785107087534,0.89681652069913,0.89681652069913,NA,0.843210768243988,0.445373233695942,0.803192991565918,0,0,-0.007697965099837,0.00770027725495614
3,1,2,"green_flower",2,1,0.757142857142857,0.997,85,3,34,1,2,1,"jellyfish.jpg",2,0.00290879657473672,0.997090571859377,0,0,0.0341982827421673,0.898305908701715,0.0337479042780587,0.0337479042780587,0.898305908701715,NA,0.842601748886802,0.440509794332588,0.806394520072574,-0.00402358264254564,0.00402445625383863,0,0
3,2,5,"yellow_flower",4,1,0.76056338028169,1.581,86,3,35,1,2,1,"apron.jpg",4,0,0,0.00402324783408685,0.995975543746161,0.0338963475211773,0.0338963475211773,0.0345236153121444,0.897683689645501,0.897683689645501,NA,0.842856248330597,0.442544940545777,0.805057563236236,0,0,-0.00556514343164625,0.00556681497402234
3,2,4,"yellow_flower",4,1,0.763888888888889,0.584,87,3,36,1,2,1,"scalpel.jpg",4,0,0,0.00290855452932978,0.997090571859377,0.0337479055512195,0.0337479055512195,0.0341982463066931,0.898305942590868,0.898305942590868,NA,0.842601735026746,0.440509683605213,0.80639459297545,0,0,-0.00402324783408685,0.00402445625383863
3,1,2,"green_flower",4,0,0.753424657534247,1.348,88,4,1,0,0,1,"monarchbutterfly.jpg",2,0.00210287653190763,0.720833619635027,0,0.277063047250748,0.033964861053984,0.898753349174296,0.0336408948858603,0.0336408948858603,0.898753349174296,NA,0.842418675051504,0.43904332208208,0.00113530970043625,-0.00290879657473672,-0.997090571859377,0,1
3,2,5,"yellow_flower",1,0,0.743243243243243,0.57,89,4,2,0,0,1,"baseballglove.jpg",4,0.277063047250748,0,0.0021027015483387,0.720833619635027,0.0336408957970945,0.0336408957970945,0.0339648348868953,0.898753373518916,0.898753373518916,NA,0.842418665091364,0.439043242354298,0.00113530977401876,1,0,-0.00290855452932978,-0.997090571859377
3,2,2,"yellow_flower",1,0,0.733333333333333,2.284,90,4,3,0,0,1,"granolabar01.jpg",4,0.477362162349626,0,0.00152012064989711,0.521117260418159,0.163377706262921,0.0655742381936086,0.0660301198614446,0.705017935682026,0.705017935682026,NA,0.913964688946723,0.900524334748698,0.00549617239195922,0.722936952749252,0,-0.0021027015483387,-0.720833619635027
3,1,4,"green_flower",4,0,0.723684210526316,0.547,91,4,4,0,0,1,"hockeypuck.jpg",2,0.00152024715198521,0.521117260418159,0,0.477362162349626,0.0660301554170674,0.705017908842454,0.0655742356972402,0.163377700043238,0.705017908842454,NA,0.91396469883398,0.900524403925256,0.00549617203384818,-0.00210287653190763,-0.720833619635027,0,0.722936952749252
3,1,5,"green_flower",4,0,0.714285714285714,2.283,92,4,5,0,0,1,"bookshelf.jpg",2,0.00109904284348192,0.376734924271742,0,0.622165794257581,0.0810948963600128,0.449266144402575,0.0806897084831116,0.388949250754301,0.449266144402575,NA,0.962708275690537,1.13359198209525,0.0635456340217784,-0.00152024715198521,-0.521117260418159,0,0.522637837650374
3,1,2,"yellow_flower",4,1,0.717948717948718,0.547,93,4,6,0,0,1,"gps.jpg",4,0.000794538684207692,0.272355598147233,0,0.726849690656142,0.0758533614834334,0.261508498852369,0.0755791792454134,0.587058960418784,0.587058960418784,NA,0.945033433609623,1.05425469735231,0.228336142803485,-0.00109904284348192,-0.376734924271742,0,0.377834205742419
3,1,4,"yellow_flower",4,1,0.721518987341772,1.054,94,4,7,0,0,1,"porcupine.jpg",4,0.000574401375202508,0.196895926188761,0,0.802529547720436,0.0650104801107049,0.159063275192875,0.0648405125534763,0.711085732142944,0.711085732142944,NA,0.912027444398161,0.889963157262085,0.417449250680466,-0.000794538684207692,-0.272355598147233,0,0.273150309343858
3,2,3,"blue_flower",1,1,0.725,1.186,95,4,8,0,0,1,"giraffe.jpg",1,0.622165794257581,0,0.00109895139044783,0.376734924271742,0.3889492639011,0.080689711210489,0.0810948653002767,0.449266159588134,0.3889492639011,NA,0.962708269736059,1.13359193549937,0.0635456385888132,0.522637837650374,0,-0.00152012064989711,-0.521117260418159
3,2,2,"blue_flower",1,1,0.728395061728395,0.588,96,4,9,0,0,1,"toyanimal05.jpg",1,0.726849690656142,0,0.000794472569429909,0.272355598147233,0.58705897383687,0.0755791809728854,0.0758533403607184,0.261508504829526,0.58705897383687,NA,0.945033428865171,1.0542546625031,0.228336155740386,0.377834205742419,0,-0.00109895139044783,-0.376734924271742
3,1,5,"yellow_flower",4,1,0.731707317073171,1.796,97,4,10,0,0,1,"hulahoop.jpg",4,0.000415255979843881,0.142343340887644,0,0.857241312970995,0.0556996580384559,0.106359454974577,0.0555943423540318,0.782346544632935,0.782346544632935,NA,0.887686466316178,0.75187494362878,0.556315465479813,-0.000574401375202508,-0.196895926188761,0,0.197470452279564
3,2,4,"green_flower",1,0,0.72289156626506,1.875,98,4,11,0,0,1,"treadmill.jpg",2,0.802529547720436,0,0.000574353578386526,0.196895926188761,0.711085742213183,0.0648405134717333,0.0650104668695894,0.159063277445494,0.0648405134717333,NA,0.91202744067292,0.889963131158473,0.4174492661337,0.273150309343858,0,-0.000794472569429909,-0.272355598147233
3,1,4,"yellow_flower",4,1,0.726190476190476,1.404,99,4,12,0,0,1,"volleyball.jpg",4,0.00030020389267924,0.102905261105461,0,0.896794469820767,0.048961908584161,0.0781534890893262,0.0488949643587284,0.823989637967784,0.823989637967784,NA,0.872129815632325,0.65401469615603,0.644645446077439,-0.000415255979843881,-0.142343340887644,0,0.142758687029005
3,2,3,"blue_flower",1,1,0.729411764705882,0.487,100,4,13,0,1,1,"whiteout.jpg",1,0.857241312970995,0,0.000415221425759384,0.142343340887644,0.782346551495502,0.0555943428416928,0.0556996497552669,0.106359455907539,0.782346551495502,NA,0.887686463671758,0.751874924893092,0.556315478238103,0.197470452279564,0,-0.000574353578386526,-0.196895926188761
3,2,5,"blue_flower",1,1,0.732558139534884,0.832,101,4,14,0,1,1,"butterfly2.jpg",1,0.896794469820767,0,0.000300178912254689,0.102905261105461,0.823989642560985,0.0488949646312857,0.0489619032827488,0.0781534895249805,0.823989642560985,NA,0.872129813820775,0.654014682985542,0.644645455325598,0.142758687029005,0,-0.000415221425759384,-0.142343340887644
3,2,4,"blue_flower",1,1,0.735632183908046,1.245,102,4,15,0,1,1,"sandcastle.jpg",1,0.925388908505354,0,0.00021701042810499,0.0743940158854484,0.84937069688918,0.0442426991004335,0.0442864787756397,0.0621001252347469,0.84937069688918,NA,0.862265771506404,0.58724050821238,0.69987265693149,0.103205530179233,0,-0.000300178912254689,-0.102905261105461
3,1,3,"green_flower",4,0,0.727272727272727,1.186,103,4,16,0,1,1,"ironingboard01.jpg",2,0.000217028487376993,0.0743940158854484,0,0.925388908505354,0.0442864822592909,0.0621001250083871,0.0442426989391654,0.849370693793157,0.0621001250083871,NA,0.862265772743882,0.587240517433829,0.699872650479069,-0.00030020389267924,-0.102905261105461,0,0.103205530179233
3,2,4,"blue_flower",1,1,0.730337078651685,1.569,104,4,17,0,1,1,"cookingpot.jpg",1,0.946060884873565,0,0.000156884857609032,0.0537821831470055,0.865487748664144,0.0410287652969673,0.0410581120650725,0.0524253739738158,0.865487748664144,NA,0.855874551055601,0.541712854928278,0.735119932231912,0.0746110914946455,0,-0.00021701042810499,-0.0743940158854484
3,2,5,"blue_flower",1,1,0.733333333333333,0.598,105,4,18,0,1,1,"snowglobe.jpg",1,0.961005420476504,0,0.000113417860892374,0.0388811275964983,0.876070543980947,0.0387959438708824,0.03881600316087,0.0463175089873002,0.876070543980947,NA,0.851629960278267,0.51038527171127,0.758228322781042,0.0539391151264347,0,-0.000156884857609032,-0.0537821831470055
3,1,4,"yellow_flower",4,1,0.736263736263736,1.571,106,4,19,1,1,1,"jaguar.jpg",4,0.000156897913324103,0.0537821831470055,0,0.946060884873565,0.0410581144078308,0.0524253738457372,0.0410287651967313,0.865487746549701,0.865487746549701,NA,0.855874551907602,0.541712861404978,0.735119927756395,-0.000217028487376993,-0.0743940158854484,0,0.0746110914946455
3,2,3,"blue_flower",1,1,0.739130434782609,0.494,107,4,20,1,1,1,"escalator.jpg",1,0.971809377505546,0,8.19939627408711e-05,0.0281086039040673,0.883199978062001,0.0372324501561505,0.0372463663405191,0.0423212054413291,0.883199978062001,NA,0.848750693326461,0.488600239401144,0.773745485224738,0.0389945795234957,0,-0.000113417860892374,-0.0388811275964983
3,2,4,"blue_flower",1,1,0.741935483870968,0.581,108,4,21,1,1,1,"surfboard.jpg",1,0.979619957277755,0,5.9276465567721e-05,0.0203207484524421,0.888095656673687,0.0361295489862578,0.0361393109915207,0.0396354833485348,0.888095656673687,NA,0.84676484405709,0.473309439036356,0.784366064491159,0.0281906224944544,0,-8.19939627408711e-05,-0.0281086039040673
3,2,2,"blue_flower",1,1,0.74468085106383,0.735,109,4,22,1,1,1,"winniethepooh.jpg",1,0.98526651401748,0,4.28531473872741e-05,0.0146906199637926,0.891505051458997,0.0353468047702789,0.0353537089299766,0.0377944348407475,0.891505051458997,NA,0.845377864455062,0.462496269246126,0.791741764103387,0.0203800427222454,0,-5.9276465567721e-05,-0.0203207484524421
3,1,4,"green_flower",4,0,0.736842105263158,1.736,110,4,23,1,1,1,"lantern03.jpg",2,0.000113427299351243,0.0388811275964983,0,0.961005420476504,0.0388160047657922,0.0463175089099623,0.0387959438061035,0.876070542518142,0.0463175089099623,NA,0.851629960870728,0.5103852762839,0.7582283196626,-0.000156897913324103,-0.0537821831470055,0,0.0539391151264347
3,1,5,"yellow_flower",4,1,0.739583333333333,0.499,111,4,24,1,1,1,"polarbear.jpg",4,8.20007861515648e-05,0.0281086039040673,0,0.971809377505546,0.0372463674556764,0.0423212053923085,0.0372324501130241,0.883199977038991,0.883199977038991,NA,0.848750693742199,0.488600242646237,0.773745483036559,-0.000113427299351243,-0.0388811275964983,0,0.0389945795234957
3,1,3,"yellow_flower",4,1,0.742268041237113,2.04,112,4,25,1,2,1,"microwave.jpg",4,5.92813984634553e-05,0.0203207484524421,0,0.979619957277755,0.0361393117746467,0.0396354833163314,0.036129548956903,0.888095655952119,0.888095655952119,NA,0.846764844350996,0.473309441349564,0.784366062945339,-8.20007861515648e-05,-0.0281086039040673,0,0.0281906224944544
3,1,4,"yellow_flower",4,1,0.744897959183674,0.432,113,4,26,1,2,1,"dalmatian.jpg",4,4.28567135598845e-05,0.0146906199637926,0,0.98526651401748,0.0353537094842716,0.0377944348190304,0.0353468047499683,0.89150505094673,0.89150505094673,NA,0.845377864664044,0.462496270900918,0.791741763005163,-5.92813984634553e-05,-0.0203207484524421,0,0.0203800427222454
3,1,2,"yellow_flower",4,1,0.747474747474748,0.702,114,4,27,1,2,1,"trafficlight.jpg",4,3.09827019058305e-05,0.0106203920306215,0,0.989348618540423,0.0347935421111449,0.0365139366956467,0.0347886293822164,0.893903891810992,0.893903891810992,NA,0.844400070047099,0.454805310768119,0.796919834610438,-4.28567135598845e-05,-0.0146906199637926,0,0.0147334859825197
3,1,3,"yellow_flower",4,1,0.75,0.472,115,4,28,1,2,1,"birdfeeder.jpg",4,2.23985401037395e-05,0.00767787385161996,0,0.992299722745044,0.0343926623134374,0.0356138204296359,0.0343891515717773,0.895604365685149,0.895604365685149,NA,0.843705997118538,0.449311250732567,0.80058422800887,-3.09827019058305e-05,-0.0106203920306215,0,0.0106513814595766
3,2,5,"blue_flower",1,1,0.752475247524752,1.547,116,4,29,1,2,1,"golfball.jpg",1,0.989348618540423,0,3.09801237878705e-05,0.0106203920306215,0.893903892176442,0.0347886293964389,0.0347935417165448,0.0365139367105745,0.893903892176442,NA,0.844400069897847,0.45480530958109,0.796919835394157,0.0147334859825197,0,-4.28531473872741e-05,-0.0146906199637926
3,1,3,"yellow_flower",4,1,0.754901960784314,0.855,117,4,30,1,2,1,"butterfly2.jpg",4,1.61927323286293e-05,0.00555061872588329,0,0.994433185025978,0.0341049942784138,0.0349761882432461,0.0341024774267278,0.896816340051612,0.896816340051612,NA,0.8432108430776,0.445373883056312,0.803192629368001,-2.23985401037395e-05,-0.00767787385161996,0,0.00770027725495614
3,1,3,"yellow_flower",4,1,0.757281553398058,0.53,118,4,31,1,2,1,"handbrush02.jpg",4,1.17063245663436e-05,0.004012747387563,0,0.995975543746161,0.0338981507294846,0.0345219577654368,0.0338963422211537,0.897683549283925,0.897683549283925,NA,0.842856306242605,0.442545430747506,0.805057275193351,-1.61927323286293e-05,-0.00555061872588329,0,0.00556681497402234
3,2,4,"blue_flower",1,1,0.759615384615385,1.184,119,4,32,1,2,1,"dogsled.jpg",1,0.992299722745044,0,2.23966762869977e-05,0.00767787385161996,0.895604365946799,0.0343891515818241,0.0343926620313361,0.0356138204400405,0.895604365946799,NA,0.843705997011597,0.449311249879317,0.800584228570058,0.0106513814595766,0,-3.09801237878705e-05,-0.0106203920306215
3,1,3,"blue_flower",4,0,0.752380952380952,1.677,120,4,33,1,2,1,"seaturtle.jpg",1,8.46293460988614e-06,0.00290096336851732,0,0.997090571859377,0.0337492032526262,0.0341970591019214,0.0337479015503455,0.898305836095107,0.0337492032526262,NA,0.842601778858338,0.440510048772919,0.806394371288319,-1.17063245663436e-05,-0.004012747387563,0,0.00402445625383863
3,2,4,"blue_flower",1,1,0.754716981132076,0.805,121,4,34,1,2,1,"canoepaddle02.jpg",1,0.994433185025978,0,1.61913849066336e-05,0.00555061872588329,0.89681634023944,0.0341024774338701,0.0341049940761179,0.0349761882505715,0.89681634023944,NA,0.843210843000789,0.445373882442041,0.803192629770873,0.00770027725495614,0,-2.23966762869977e-05,-0.00767787385161996
3,2,3,"blue_flower",1,1,0.757009345794392,0.435,122,4,35,1,2,1,"trophy01.jpg",1,0.995975543746161,0,1.17053504651919e-05,0.004012747387563,0.89768354941902,0.0338963422262548,0.0338981505840932,0.0345219577706321,0.89768354941902,NA,0.842856306187337,0.442545430304779,0.805057275483116,0.00556681497402234,0,-1.61913849066336e-05,-0.00555061872588329
3,2,2,"blue_flower",1,1,0.759259259259259,1.054,123,4,36,1,2,1,"donut.jpg",1,0.997090571859377,0,8.46223039616786e-06,0.00290096336851732,0.89830583619241,0.0337479015540011,0.0337492031479631,0.0341970591056256,0.89830583619241,NA,0.842601778818519,0.440510048453564,0.806394371497023,0.00402445625383863,0,-1.17053504651919e-05,-0.004012747387563
3,1,1,NA,3,0,0.752293577981651,NA,124,5,1,0,0,1,"artichoke01b.jpg",NA,6.11816815818726e-06,0.00209721361767311,0.277063047250748,0.720833619635027,0.0336418308779466,0.0339639823699032,0.0336408928181806,0.89875329393397,NA,NA,0.842418697795425,0.439043511958224,0.00113530953889369,-8.46293460988614e-06,-0.00290096336851732,1,-0.997090571859377
3,1,5,"yellow_flower",3,0,0.745454545454545,1.129,125,5,2,0,0,1,"lintroller.jpg",4,4.4230498446874e-06,0.00151615322202483,0.477362162349626,0.521117260418159,0.0655755516923453,0.0660289174725228,0.163377685359008,0.705017845476124,0.705017845476124,NA,0.913964722511806,0.900524576380306,0.00549617120204482,-6.11816815818726e-06,-0.00209721361767311,0.722936952749252,-0.720833619635027
3,1,2,"red_flower",3,1,0.747747747747748,0.503,126,5,3,0,0,1,"fridge.jpg",3,3.19758617657636e-06,0.00109608319023159,0.622165794257581,0.376734924271742,0.0806908777859724,0.0810937958330916,0.388949218840845,0.449266107540091,0.388949218840845,NA,0.96270829043845,1.13359210107958,0.0635456230964115,-4.4230498446874e-06,-0.00151615322202483,0.522637837650374,-0.521117260418159
3,1,4,"red_flower",3,1,0.75,0.449,127,5,4,0,0,1,"shower.jpg",3,2.31165320664724e-06,0.000792399041505706,0.726849690656142,0.272355598147233,0.0755799712429973,0.0758526175017557,0.587058927200249,0.261508484054998,0.587058927200249,NA,0.945033445484879,1.05425478650252,0.228336111148081,-3.19758617657636e-06,-0.00109608319023159,0.377834205742419,-0.376734924271742
3,1,2,"red_flower",3,1,0.752212389380531,0.619,128,5,5,0,0,1,"zebra.jpg",3,1.67117952502659e-06,0.000572854548427563,0.802529547720436,0.196895926188761,0.0648410041114207,0.0650100194896606,0.71108570686131,0.159063269537608,0.71108570686131,NA,0.912027453796909,0.889963224085352,0.417449212217431,-2.31165320664724e-06,-0.000792399041505706,0.273150309343858,-0.272355598147233
3,1,4,"red_flower",3,1,0.754385964912281,0.467,129,5,6,0,0,1,"jokercard.jpg",3,1.20815743331967e-06,0.000414137721608771,0.857241312970995,0.142343340887644,0.0555946472368324,0.0556993729232768,0.782346527231083,0.106359452608808,0.782346527231083,NA,0.887686473038693,0.751874991715852,0.556315433326606,-1.67117952502659e-06,-0.000572854548427563,0.197470452279564,-0.196895926188761
3,1,2,"red_flower",3,1,0.756521739130435,0.843,130,5,7,0,0,1,"recyclingbin.jpg",3,8.73421653285477e-07,0.000299395462478363,0.896794469820767,0.102905261105461,0.0488951582991979,0.048961727487482,0.823989626236663,0.0781534879766568,0.823989626236663,NA,0.872129820265645,0.654014730059289,0.644645422560691,-1.20815743331967e-06,-0.000414137721608771,0.142758687029005,-0.142343340887644
3,2,2,"blue_flower",2,0,0.75,1.145,131,5,8,0,0,1,"aquarium.jpg",1,0.720833619635027,0.277063047250748,6.11765905606768e-06,0.00209721361767311,0.898753294004125,0.0336408928208066,0.0336418308025142,0.0339639823725544,0.898753294004125,NA,0.842418697766711,0.439043511727722,0.00113530953910528,-0.997090571859377,1,-8.46223039616786e-06,-0.00290096336851732
3,2,3,"green_flower",2,1,0.752136752136752,0.469,132,5,9,0,0,1,"skiboot01a.jpg",2,0.521117260418159,0.477362162349626,4.42268179595243e-06,0.00151615322202483,0.705017845553674,0.163377685376979,0.0655755515895609,0.0660289174797859,0.163377685376979,NA,0.913964722483209,0.900524576179668,0.00549617120307841,-0.720833619635027,0.722936952749252,-6.11765905606768e-06,-0.00209721361767311
3,2,5,"green_flower",2,1,0.754237288135593,0.529,133,5,10,0,0,1,"cuttlefish.jpg",2,0.376734924271742,0.622165794257581,3.19732010054544e-06,0.00109608319023159,0.449266107584052,0.388949218878904,0.080690877696017,0.0810937958410267,0.388949218878904,NA,0.962708290421187,1.1335921009442,0.0635456231096194,-0.521117260418159,0.522637837650374,-4.42268179595243e-06,-0.00151615322202483
3,2,2,"green_flower",2,1,0.756302521008403,0.536,134,5,11,0,0,1,"stool01.jpg",2,0.272355598147233,0.726849690656142,2.31146085045225e-06,0.000792399041505706,0.261508484072326,0.587058927239147,0.0755799711817457,0.0758526175067817,0.587058927239147,NA,0.945033445471115,1.05425478640126,0.228336111185554,-0.376734924271742,0.377834205742419,-3.19732010054544e-06,-0.00109608319023159
3,1,4,"blue_flower",3,0,0.75,1.964,135,5,12,0,0,1,"pumpkin.jpg",1,6.31428788491416e-07,0.00021644404331106,0.925388908505354,0.0743940158854484,0.0442428258467707,0.0442863638809796,0.849370685844979,0.0621001244272711,0.0442428258467707,NA,0.862265775923517,0.587240541232931,0.699872633965782,-8.73421653285477e-07,-0.000299395462478363,0.103205530179233,-0.102905261105461
3,2,1,NA,2,0,0.743801652892562,NA,136,5,13,0,1,1,"mirror02.jpg",NA,0.196895926188761,0.802529547720436,1.67104046362514e-06,0.000572854548427563,0.159063269544145,0.711085706890533,0.0648410040729901,0.0650100194923322,NA,NA,0.912027453786095,0.889963224009496,0.417449212262247,-0.272355598147233,0.273150309343858,-2.31146085045225e-06,-0.000792399041505706
3,2,4,"blue_flower",2,0,0.737704918032787,0.979,137,5,14,0,1,1,"crab01.jpg",1,0.142343340887644,0.857241312970995,1.20805690069386e-06,0.000414137721608771,0.106359452611517,0.782346527251011,0.0555946472127758,0.0556993729246956,0.106359452611517,NA,0.887686473031013,0.751874991661397,0.556315433363639,-0.196895926188761,0.197470452279564,-1.67104046362514e-06,-0.000572854548427563
3,2,5,"green_flower",2,1,0.739837398373984,0.478,138,5,15,0,1,1,"butterfly3.jpg",2,0.102905261105461,0.896794469820767,8.73348974535323e-07,0.000299395462478363,0.0781534879779226,0.823989626250009,0.0488951582837937,0.048961727488275,0.823989626250009,NA,0.872129820260381,0.654014730021001,0.644645422587553,-0.142343340887644,0.142758687029005,-1.20805690069386e-06,-0.000414137721608771
3,1,3,"green_flower",3,0,0.733870967741935,0.511,139,5,16,0,1,1,"fishskeleton.jpg",2,4.56483204230136e-07,0.000156475397112025,0.946060884873565,0.0537821831470055,0.0410288502974289,0.0410580350855965,0.865487741101267,0.052425373515708,0.0410580350855965,NA,0.855874554104235,0.541712878154814,0.735119916249604,-6.31428788491416e-07,-0.00021644404331106,0.0746110914946455,-0.0743940158854484
3,2,1,NA,2,0,0.728,NA,140,5,17,0,1,1,"jackrabbit.jpg",NA,0.0743940158854484,0.925388908505354,6.3137624633725e-07,0.00021644404331106,0.062100124427929,0.849370685853977,0.0442428258366448,0.0442863638814488,NA,NA,0.86226577591992,0.587240541206118,0.699872633984532,-0.102905261105461,0.103205530179233,-8.73348974535323e-07,-0.000299395462478363
3,1,5,"red_flower",3,1,0.73015873015873,1.662,141,5,18,0,1,1,"dartboard.jpg",3,3.30008576647349e-07,0.000113121846768396,0.961005420476504,0.0388811275964983,0.0387960019896151,0.0388159505615083,0.87607053873873,0.0463175087101463,0.87607053873873,NA,0.851629962402019,0.51038528812817,0.758228311618353,-4.56483204230136e-07,-0.000156475397112025,0.0539391151264347,-0.0537821831470055
3,2,5,"green_flower",2,1,0.732283464566929,0.868,142,5,19,1,1,1,"brownsugar.jpg",2,0.0537821831470055,0.946060884873565,4.56445219565312e-07,0.000156475397112025,0.0524253735160804,0.865487741107414,0.0410288502906175,0.0410580350858881,0.865487741107414,NA,0.855874554101758,0.541712878135978,0.735119916262614,-0.0743940158854484,0.0746110914946455,-6.3137624633725e-07,-0.00021644404331106
3,1,4,"red_flower",3,1,0.734375,1.268,143,5,20,1,1,1,"cremebrulee.jpg",3,2.38575394782552e-07,8.17799631921123e-05,0.971809377505546,0.0281086039040673,0.0372324904853488,0.0372463298584818,0.883199974390759,0.0423212052654104,0.883199974390759,NA,0.848750694818677,0.488600251061789,0.773745477378545,-3.30008576647349e-07,-0.000113121846768396,0.0389945795234957,-0.0388811275964983
3,2,3,"red_flower",2,0,0.728682170542636,0.574,144,5,21,1,1,1,"doghouse.jpg",3,0.0388811275964983,0.961005420476504,3.2998111612951e-07,0.000113121846768396,0.0463175087103712,0.876070538742984,0.038796001984948,0.0388159505616967,0.038796001984948,NA,0.851629962400296,0.51038528811487,0.75822831162742,-0.0537821831470055,0.0539391151264347,-4.56445219565312e-07,-0.000156475397112025
3,1,5,"red_flower",3,1,0.730769230769231,0.58,145,5,22,1,1,1,"filingcabinet.jpg",3,1.72474968905048e-07,5.91217573860516e-05,0.979619957277755,0.0203207484524421,0.0361295772811979,0.036139285404334,0.888095654081617,0.0396354832328514,0.888095654081617,NA,0.846764845113012,0.473309447353688,0.784366058941428,-2.38575394782552e-07,-8.17799631921123e-05,0.0281906224944544,-0.0281086039040673
3,2,5,"green_flower",2,1,0.732824427480916,0.561,146,5,23,1,1,1,"hockeystick.jpg",2,0.0281086039040673,0.971809377505546,2.38555542559465e-07,8.17799631921123e-05,0.042321205265553,0.883199974393734,0.0372324904821055,0.0372463298586073,0.883199974393734,NA,0.848750694817468,0.48860025105235,0.773745477384909,-0.0388811275964983,0.0389945795234957,-3.2998111612951e-07,-0.000113121846768396
3,2,2,"green_flower",2,1,0.734848484848485,0.897,147,5,24,1,1,1,"bolt01a.jpg",2,0.0203207484524421,0.979619957277755,1.72460616999384e-07,5.91217573860516e-05,0.039635483232945,0.888095654083716,0.0361295772789201,0.0361392854044194,0.888095654083716,NA,0.846764845112158,0.473309447346959,0.784366058945924,-0.0281086039040673,0.0281906224944544,-2.38555542559465e-07,-8.17799631921123e-05
3,2,2,"green_flower",2,1,0.736842105263158,0.734,148,5,25,1,2,1,"ipad02.jpg",2,0.0146906199637926,0.98526651401748,1.2467815292279e-07,4.27413031258527e-05,0.0377944347627403,0.891505049618945,0.0353468247825243,0.0353536908357904,0.891505049618945,NA,0.845377865205788,0.462496275194014,0.791741760160272,-0.0203207484524421,0.0203800427222454,-1.72460616999384e-07,-5.91217573860516e-05
3,2,3,"green_flower",2,1,0.738805970149254,0.447,149,5,26,1,2,1,"cannon.jpg",2,0.0106203920306215,0.989348618540423,9.01344439484072e-08,3.0899267438336e-05,0.036513936656926,0.893903890863065,0.0347886436363617,0.034793528843647,0.893903890863065,NA,0.844400070434269,0.454805313849123,0.796919832578445,-0.0146906199637926,0.0147334859825197,-1.2467815292279e-07,-4.27413031258527e-05
3,1,4,"green_flower",3,0,0.733333333333333,0.928,150,5,27,1,2,1,"bathtub.jpg",2,1.24688528445737e-07,4.27413031258527e-05,0.98526651401748,0.0146906199637926,0.0353468247841367,0.0353536908357313,0.891505049617455,0.0377944347626772,0.0353536908357313,NA,0.845377865206396,0.462496275198828,0.791741760157078,-1.72474968905048e-07,-5.91217573860516e-05,0.0203800427222454,-0.0203207484524421
